mturk,key_resp_2.keys,key_resp_2.rt,key_resp_3.keys,key_resp_3.rt,mouse_2.x,mouse_2.y,mouse_2.leftButton,mouse_2.midButton,mouse_2.rightButton,mouse_2.clicked_name,key_resp_5.keys,key_resp_5.rt,key_resp.keys,key_resp.rt,key_resp_6.keys,key_resp_6.rt,mouse.x,mouse.y,mouse.leftButton,mouse.midButton,mouse.rightButton,mouse.clicked_name,trials.thisRepN,trials.thisTrialN,trials.thisN,trials.thisIndex,trials.ran,N,caption,class_caption,model_guessed,target_idx,image_set,img1,img2,img3,img4,img5,img6,img7,img8,img9,img10,Q_id,block,is_check,date,expName,psychopyVersion,OS,frameRate,key_resp_7.keys,key_resp_7.rt
6634122,space,32.226,space,13.3191,0.252604167,0.119791667,1,0,0,ex4,space,8.3323,space,13.6733,space,6.2277,-0.53515625,0.154947917,1,0,0,image_0,0,0,0,44,1,724,"You see two blurry green grass peices connected on the top left, The top edge you can see two green grass pieces. The left one is pointing to the bottom right corner, the littlest one is pointing down.",H,0,4,MSR-VTT-videoTestVideo_video7295-shot1_13,Images/MSR-VTT-videoTestVideo_video7295-shot1_13/img251.jpg,Images/MSR-VTT-videoTestVideo_video7295-shot1_13/img254.jpg,Images/MSR-VTT-videoTestVideo_video7295-shot1_13/img255.jpg,Images/MSR-VTT-videoTestVideo_video7295-shot1_13/img258.jpg,Images/MSR-VTT-videoTestVideo_video7295-shot1_13/img262.jpg,Images/MSR-VTT-videoTestVideo_video7295-shot1_13/img264.jpg,Images/MSR-VTT-videoTestVideo_video7295-shot1_13/img266.jpg,Images/MSR-VTT-videoTestVideo_video7295-shot1_13/img268.jpg,Images/MSR-VTT-videoTestVideo_video7295-shot1_13/img271.jpg,Images/MSR-VTT-videoTestVideo_video7295-shot1_13/img272.jpg,1587,35,0,2022-06-16_04h11.42.674,annotation,2021.2.3,Win32,70.41261794,,
,,,,,,,,,,,,,,,,,-0.03125,-0.139322917,1,0,0,image_7,0,1,1,55,1,2014,A group of children sitting at a table with a cake.,M,0,6,video-storytelling-videobirthday__amwPjAcoC8-shot21_0,Images/video-storytelling-videobirthday__amwPjAcoC8-shot21_0/img0.jpg,Images/video-storytelling-videobirthday__amwPjAcoC8-shot21_0/img6.jpg,Images/video-storytelling-videobirthday__amwPjAcoC8-shot21_0/img9.jpg,Images/video-storytelling-videobirthday__amwPjAcoC8-shot21_0/img16.jpg,Images/video-storytelling-videobirthday__amwPjAcoC8-shot21_0/img24.jpg,Images/video-storytelling-videobirthday__amwPjAcoC8-shot21_0/img41.jpg,Images/video-storytelling-videobirthday__amwPjAcoC8-shot21_0/img45.jpg,Images/video-storytelling-videobirthday__amwPjAcoC8-shot21_0/img54.jpg,Images/video-storytelling-videobirthday__amwPjAcoC8-shot21_0/img59.jpg,Images/video-storytelling-videobirthday__amwPjAcoC8-shot21_0/img66.jpg,1083,35,0,2022-06-16_04h11.42.674,annotation,2021.2.3,Win32,70.41261794,,
,,,,,,,,,,,,,,,,,-0.220052083,-0.10546875,1,0,0,image_6,0,2,2,24,1,395,The child is looking down at the present and slightly to the left in this slightly blurry pic,H,0,1,video-storytelling-videochristmas_5RR_sRzKODA-shot23_8,Images/video-storytelling-videochristmas_5RR_sRzKODA-shot23_8/img330.jpg,Images/video-storytelling-videochristmas_5RR_sRzKODA-shot23_8/img331.jpg,Images/video-storytelling-videochristmas_5RR_sRzKODA-shot23_8/img334.jpg,Images/video-storytelling-videochristmas_5RR_sRzKODA-shot23_8/img338.jpg,Images/video-storytelling-videochristmas_5RR_sRzKODA-shot23_8/img342.jpg,Images/video-storytelling-videochristmas_5RR_sRzKODA-shot23_8/img347.jpg,Images/video-storytelling-videochristmas_5RR_sRzKODA-shot23_8/img354.jpg,Images/video-storytelling-videochristmas_5RR_sRzKODA-shot23_8/img360.jpg,Images/video-storytelling-videochristmas_5RR_sRzKODA-shot23_8/img362.jpg,Images/video-storytelling-videochristmas_5RR_sRzKODA-shot23_8/img370.jpg,444,35,0,2022-06-16_04h11.42.674,annotation,2021.2.3,Win32,70.41261794,,
,,,,,,,,,,,,,,,,,-0.462239583,0.20703125,1,0,0,image_0,0,3,3,7,1,464,The dog's head is barely touching the top of the image.,H,0,2,video-storytelling-videochristmas_5RR_sRzKODA-shot20_4,Images/video-storytelling-videochristmas_5RR_sRzKODA-shot20_4/img97.jpg,Images/video-storytelling-videochristmas_5RR_sRzKODA-shot20_4/img101.jpg,Images/video-storytelling-videochristmas_5RR_sRzKODA-shot20_4/img102.jpg,Images/video-storytelling-videochristmas_5RR_sRzKODA-shot20_4/img103.jpg,Images/video-storytelling-videochristmas_5RR_sRzKODA-shot20_4/img104.jpg,Images/video-storytelling-videochristmas_5RR_sRzKODA-shot20_4/img106.jpg,Images/video-storytelling-videochristmas_5RR_sRzKODA-shot20_4/img110.jpg,Images/video-storytelling-videochristmas_5RR_sRzKODA-shot20_4/img114.jpg,Images/video-storytelling-videochristmas_5RR_sRzKODA-shot20_4/img116.jpg,Images/video-storytelling-videochristmas_5RR_sRzKODA-shot20_4/img119.jpg,628,35,0,2022-06-16_04h11.42.674,annotation,2021.2.3,Win32,70.41261794,,
,,,,,,,,,,,,,,,,,-0.462239583,0.1875,1,0,0,image_0,0,4,4,15,1,1813,A man is standing in front of a computer screen.,M,0,8,MSR-VTT-videoTestVideo_video8216-shot1_0,Images/MSR-VTT-videoTestVideo_video8216-shot1_0/img0.jpg,Images/MSR-VTT-videoTestVideo_video8216-shot1_0/img9.jpg,Images/MSR-VTT-videoTestVideo_video8216-shot1_0/img14.jpg,Images/MSR-VTT-videoTestVideo_video8216-shot1_0/img38.jpg,Images/MSR-VTT-videoTestVideo_video8216-shot1_0/img52.jpg,Images/MSR-VTT-videoTestVideo_video8216-shot1_0/img81.jpg,Images/MSR-VTT-videoTestVideo_video8216-shot1_0/img115.jpg,Images/MSR-VTT-videoTestVideo_video8216-shot1_0/img130.jpg,Images/MSR-VTT-videoTestVideo_video8216-shot1_0/img143.jpg,Images/MSR-VTT-videoTestVideo_video8216-shot1_0/img146.jpg,166,35,0,2022-06-16_04h11.42.674,annotation,2021.2.3,Win32,70.41261794,,
,,,,,,,,,,,,,,,,,0.197916667,0.169270833,1,0,0,image_3,0,5,5,17,1,27,A man is looking out of a window.  You can see a hand appear on the far left of the screen next to a red object that is hanging. ,H,0,1,MSR-VTT-videoTestVideo_video8325-shot3_0,Images/MSR-VTT-videoTestVideo_video8325-shot3_0/img0.jpg,Images/MSR-VTT-videoTestVideo_video8325-shot3_0/img3.jpg,Images/MSR-VTT-videoTestVideo_video8325-shot3_0/img8.jpg,Images/MSR-VTT-videoTestVideo_video8325-shot3_0/img13.jpg,Images/MSR-VTT-videoTestVideo_video8325-shot3_0/img25.jpg,Images/MSR-VTT-videoTestVideo_video8325-shot3_0/img28.jpg,Images/MSR-VTT-videoTestVideo_video8325-shot3_0/img33.jpg,Images/MSR-VTT-videoTestVideo_video8325-shot3_0/img38.jpg,Images/MSR-VTT-videoTestVideo_video8325-shot3_0/img40.jpg,Images/MSR-VTT-videoTestVideo_video8325-shot3_0/img41.jpg,1345,35,0,2022-06-16_04h11.42.674,annotation,2021.2.3,Win32,70.41261794,,
,,,,,,,,,,,,,,,,,0.1796875,-0.09375,1,0,0,image_8,0,6,6,12,1,23,The hamster right leg is the touching the finger holding it down.,H,0,1,MSR-VTT-videoTestVideo_video8672-shot1_1,Images/MSR-VTT-videoTestVideo_video8672-shot1_1/img45.jpg,Images/MSR-VTT-videoTestVideo_video8672-shot1_1/img47.jpg,Images/MSR-VTT-videoTestVideo_video8672-shot1_1/img49.jpg,Images/MSR-VTT-videoTestVideo_video8672-shot1_1/img50.jpg,Images/MSR-VTT-videoTestVideo_video8672-shot1_1/img61.jpg,Images/MSR-VTT-videoTestVideo_video8672-shot1_1/img67.jpg,Images/MSR-VTT-videoTestVideo_video8672-shot1_1/img93.jpg,Images/MSR-VTT-videoTestVideo_video8672-shot1_1/img96.jpg,Images/MSR-VTT-videoTestVideo_video8672-shot1_1/img130.jpg,Images/MSR-VTT-videoTestVideo_video8672-shot1_1/img137.jpg,1693,35,0,2022-06-16_04h11.42.674,annotation,2021.2.3,Win32,70.41261794,,
,,,,,,,,,,,,,,,,,-0.022135417,-0.092447917,1,0,0,image_7,0,7,7,10,1,323,The right arm of the person in pink can be seen but just barely.  It is very blurry.  The right arm of the person with the dark top on in the foreground can now be seen but part of it is cut off on the left. ,H,0,8,MSR-VTT-videoTestVideo_video9737-shot4_0,Images/MSR-VTT-videoTestVideo_video9737-shot4_0/img0.jpg,Images/MSR-VTT-videoTestVideo_video9737-shot4_0/img2.jpg,Images/MSR-VTT-videoTestVideo_video9737-shot4_0/img6.jpg,Images/MSR-VTT-videoTestVideo_video9737-shot4_0/img8.jpg,Images/MSR-VTT-videoTestVideo_video9737-shot4_0/img11.jpg,Images/MSR-VTT-videoTestVideo_video9737-shot4_0/img13.jpg,Images/MSR-VTT-videoTestVideo_video9737-shot4_0/img15.jpg,Images/MSR-VTT-videoTestVideo_video9737-shot4_0/img19.jpg,Images/MSR-VTT-videoTestVideo_video9737-shot4_0/img21.jpg,Images/MSR-VTT-videoTestVideo_video9737-shot4_0/img24.jpg,263,35,0,2022-06-16_04h11.42.674,annotation,2021.2.3,Win32,70.41261794,,
,,,,,,,,,,,,,,,,,0.427083333,0.125,1,0,0,image_4,0,8,8,41,1,1690,A couple of people standing on a tennis court.,M,0,7,MSR-VTT-videoTestVideo_video7286-shot1_0,Images/MSR-VTT-videoTestVideo_video7286-shot1_0/img0.jpg,Images/MSR-VTT-videoTestVideo_video7286-shot1_0/img6.jpg,Images/MSR-VTT-videoTestVideo_video7286-shot1_0/img12.jpg,Images/MSR-VTT-videoTestVideo_video7286-shot1_0/img40.jpg,Images/MSR-VTT-videoTestVideo_video7286-shot1_0/img75.jpg,Images/MSR-VTT-videoTestVideo_video7286-shot1_0/img81.jpg,Images/MSR-VTT-videoTestVideo_video7286-shot1_0/img85.jpg,Images/MSR-VTT-videoTestVideo_video7286-shot1_0/img92.jpg,Images/MSR-VTT-videoTestVideo_video7286-shot1_0/img102.jpg,Images/MSR-VTT-videoTestVideo_video7286-shot1_0/img105.jpg,508,35,0,2022-06-16_04h11.42.674,annotation,2021.2.3,Win32,70.41261794,,
,,,,,,,,,,,,,,,,,-0.2421875,-0.177083333,1,0,0,image_6,0,9,9,48,1,215,There is white text at the bottom.  The character is looking to the left with a small part of the blue glowing on the left.,H,0,3,MSR-VTT-videoTestVideo_video8027-shot1_1,Images/MSR-VTT-videoTestVideo_video8027-shot1_1/img74.jpg,Images/MSR-VTT-videoTestVideo_video8027-shot1_1/img75.jpg,Images/MSR-VTT-videoTestVideo_video8027-shot1_1/img78.jpg,Images/MSR-VTT-videoTestVideo_video8027-shot1_1/img84.jpg,Images/MSR-VTT-videoTestVideo_video8027-shot1_1/img86.jpg,Images/MSR-VTT-videoTestVideo_video8027-shot1_1/img90.jpg,Images/MSR-VTT-videoTestVideo_video8027-shot1_1/img94.jpg,Images/MSR-VTT-videoTestVideo_video8027-shot1_1/img98.jpg,Images/MSR-VTT-videoTestVideo_video8027-shot1_1/img140.jpg,Images/MSR-VTT-videoTestVideo_video8027-shot1_1/img159.jpg,1015,35,0,2022-06-16_04h11.42.674,annotation,2021.2.3,Win32,70.41261794,,
,,,,,,,,,,,,,,,,,-0.24609375,0.145833333,1,0,0,image_1,0,10,10,14,1,1576,A person in a swimming pool with a goat.,M,0,4,video-storytelling-videobirthday__amwPjAcoC8-shot63_2,Images/video-storytelling-videobirthday__amwPjAcoC8-shot63_2/img58.jpg,Images/video-storytelling-videobirthday__amwPjAcoC8-shot63_2/img60.jpg,Images/video-storytelling-videobirthday__amwPjAcoC8-shot63_2/img62.jpg,Images/video-storytelling-videobirthday__amwPjAcoC8-shot63_2/img64.jpg,Images/video-storytelling-videobirthday__amwPjAcoC8-shot63_2/img72.jpg,Images/video-storytelling-videobirthday__amwPjAcoC8-shot63_2/img76.jpg,Images/video-storytelling-videobirthday__amwPjAcoC8-shot63_2/img80.jpg,Images/video-storytelling-videobirthday__amwPjAcoC8-shot63_2/img83.jpg,Images/video-storytelling-videobirthday__amwPjAcoC8-shot63_2/img87.jpg,Images/video-storytelling-videobirthday__amwPjAcoC8-shot63_2/img91.jpg,1226,35,0,2022-06-16_04h11.42.674,annotation,2021.2.3,Win32,70.41261794,,
,,,,,,,,,,,,,,,,,0.06640625,0.12109375,1,0,0,image_2,0,11,11,50,1,1842,A group of people walking together on a beach.,M,0,1,MSR-VTT-videoTestVideo_video7625-shot6_2,Images/MSR-VTT-videoTestVideo_video7625-shot6_2/img36.jpg,Images/MSR-VTT-videoTestVideo_video7625-shot6_2/img38.jpg,Images/MSR-VTT-videoTestVideo_video7625-shot6_2/img41.jpg,Images/MSR-VTT-videoTestVideo_video7625-shot6_2/img43.jpg,Images/MSR-VTT-videoTestVideo_video7625-shot6_2/img45.jpg,Images/MSR-VTT-videoTestVideo_video7625-shot6_2/img47.jpg,Images/MSR-VTT-videoTestVideo_video7625-shot6_2/img48.jpg,Images/MSR-VTT-videoTestVideo_video7625-shot6_2/img49.jpg,Images/MSR-VTT-videoTestVideo_video7625-shot6_2/img50.jpg,Images/MSR-VTT-videoTestVideo_video7625-shot6_2/img53.jpg,935,35,0,2022-06-16_04h11.42.674,annotation,2021.2.3,Win32,70.41261794,,
,,,,,,,,,,,,,,,,,-0.28125,-0.12109375,1,0,0,image_6,0,12,12,1,1,1630,A person is pouring some powdered sugar into a bowl.,M,0,3,YouCook-video0036-shot0_0,Images/YouCook-video0036-shot0_0/img0.jpg,Images/YouCook-video0036-shot0_0/img21.jpg,Images/YouCook-video0036-shot0_0/img49.jpg,Images/YouCook-video0036-shot0_0/img111.jpg,Images/YouCook-video0036-shot0_0/img116.jpg,Images/YouCook-video0036-shot0_0/img220.jpg,Images/YouCook-video0036-shot0_0/img241.jpg,Images/YouCook-video0036-shot0_0/img247.jpg,Images/YouCook-video0036-shot0_0/img270.jpg,Images/YouCook-video0036-shot0_0/img288.jpg,1569,35,0,2022-06-16_04h11.42.674,annotation,2021.2.3,Win32,70.41261794,,
,,,,,,,,,,,,,,,,,0.013020833,0.1484375,1,0,0,image_2,0,13,13,58,1,0,Pair of black gloves,H,,2,open-images-510_3a241cb30d6e5319,Checks/check1/open-images-225_1442c0d0ef23d58bimg3.jpg,Checks/check1/open-images-2759_3a42708fe77398b7img8.jpg,Checks/check1/open-images-510_3a241cb30d6e5319img2.jpg,Checks/check1/open-images-2209_02c98146fb93ff17img1.jpg,Checks/check1/open-images-1553_0f128317e56a9d2fimg9.jpg,Checks/check1/open-images-2666_044d7c6d11e6b493img8.jpg,Checks/check1/open-images-2880_159294646083f545img4.jpg,Checks/check1/open-images-609_2dc0baa993a2bd25img5.jpg,Checks/check1/open-images-1854_2b15616b4f1080e7img2.jpg,Checks/check1/open-images-1435_1b0ce31951048765img8.jpg,,,1,2022-06-16_04h11.42.674,annotation,2021.2.3,Win32,70.41261794,,
,,,,,,,,,,,,,,,,,0.013020833,0.1484375,1,0,0,image_2,0,14,14,61,1,3,A grey elephant with golden leaves on it. ,H,,2,open-images-1745_0ed62fe71809b2f5,Checks/check4/open-images-2609_3f72daeb23764ecfimg6.jpg,Checks/check4/open-images-1928_60679e2899870e08img1.jpg,Checks/check4/open-images-1745_0ed62fe71809b2f5img2.jpg,Checks/check4/open-images-1811_9ae6351c7f7565edimg0.jpg,Checks/check4/open-images-1721_6f04da11945ea492img3.jpg,Checks/check4/open-images-1907_5f9be3e4ea5e22c7img2.jpg,Checks/check4/open-images-580_0ddffb9c25141999img1.jpg,Checks/check4/open-images-2924_0645dcbcf998fed9img3.jpg,Checks/check4/open-images-869_856ecbcb5faf76e3img8.jpg,Checks/check4/open-images-250_02039517e63a91fbimg1.jpg,,,1,2022-06-16_04h11.42.674,annotation,2021.2.3,Win32,70.41261794,,
,,,,,,,,,,,,,,,,,0.200520833,-0.110677083,1,0,0,image_8,0,15,15,5,1,1698,A group of men sitting next to each other.,M,0,8,MSR-VTT-videoTestVideo_video9745-shot1_2,Images/MSR-VTT-videoTestVideo_video9745-shot1_2/img180.jpg,Images/MSR-VTT-videoTestVideo_video9745-shot1_2/img188.jpg,Images/MSR-VTT-videoTestVideo_video9745-shot1_2/img194.jpg,Images/MSR-VTT-videoTestVideo_video9745-shot1_2/img200.jpg,Images/MSR-VTT-videoTestVideo_video9745-shot1_2/img207.jpg,Images/MSR-VTT-videoTestVideo_video9745-shot1_2/img212.jpg,Images/MSR-VTT-videoTestVideo_video9745-shot1_2/img219.jpg,Images/MSR-VTT-videoTestVideo_video9745-shot1_2/img230.jpg,Images/MSR-VTT-videoTestVideo_video9745-shot1_2/img237.jpg,Images/MSR-VTT-videoTestVideo_video9745-shot1_2/img241.jpg,1729,35,0,2022-06-16_04h11.42.674,annotation,2021.2.3,Win32,70.41261794,,
,,,,,,,,,,,,,,,,,0.49609375,-0.165364583,1,0,0,image_9,0,16,16,35,1,1580,A woman is walking down a hallway with a dresser.,M,1,6,MSR-VTT-videoTestVideo_video9979-shot1_2,Images/MSR-VTT-videoTestVideo_video9979-shot1_2/img84.jpg,Images/MSR-VTT-videoTestVideo_video9979-shot1_2/img87.jpg,Images/MSR-VTT-videoTestVideo_video9979-shot1_2/img92.jpg,Images/MSR-VTT-videoTestVideo_video9979-shot1_2/img96.jpg,Images/MSR-VTT-videoTestVideo_video9979-shot1_2/img99.jpg,Images/MSR-VTT-videoTestVideo_video9979-shot1_2/img101.jpg,Images/MSR-VTT-videoTestVideo_video9979-shot1_2/img103.jpg,Images/MSR-VTT-videoTestVideo_video9979-shot1_2/img106.jpg,Images/MSR-VTT-videoTestVideo_video9979-shot1_2/img110.jpg,Images/MSR-VTT-videoTestVideo_video9979-shot1_2/img117.jpg,250,35,0,2022-06-16_04h11.42.674,annotation,2021.2.3,Win32,70.41261794,,
,,,,,,,,,,,,,,,,,0.03515625,0.102864583,1,0,0,image_2,0,17,17,36,1,1485,A person standing in front of a blender dispenser.,M,0,8,MSR-VTT-videoTestVideo_video9143-shot1_0,Images/MSR-VTT-videoTestVideo_video9143-shot1_0/img0.jpg,Images/MSR-VTT-videoTestVideo_video9143-shot1_0/img5.jpg,Images/MSR-VTT-videoTestVideo_video9143-shot1_0/img12.jpg,Images/MSR-VTT-videoTestVideo_video9143-shot1_0/img26.jpg,Images/MSR-VTT-videoTestVideo_video9143-shot1_0/img49.jpg,Images/MSR-VTT-videoTestVideo_video9143-shot1_0/img58.jpg,Images/MSR-VTT-videoTestVideo_video9143-shot1_0/img62.jpg,Images/MSR-VTT-videoTestVideo_video9143-shot1_0/img66.jpg,Images/MSR-VTT-videoTestVideo_video9143-shot1_0/img70.jpg,Images/MSR-VTT-videoTestVideo_video9143-shot1_0/img82.jpg,497,35,0,2022-06-16_04h11.42.674,annotation,2021.2.3,Win32,70.41261794,,
,,,,,,,,,,,,,,,,,0.26171875,0.123697917,1,0,0,image_3,0,18,18,38,1,378,"One person visible only, and he is standing at the far left.",H,0,1,MSR-VTT-videoTestVideo_video7776-shot0_1,Images/MSR-VTT-videoTestVideo_video7776-shot0_1/img171.jpg,Images/MSR-VTT-videoTestVideo_video7776-shot0_1/img193.jpg,Images/MSR-VTT-videoTestVideo_video7776-shot0_1/img202.jpg,Images/MSR-VTT-videoTestVideo_video7776-shot0_1/img250.jpg,Images/MSR-VTT-videoTestVideo_video7776-shot0_1/img288.jpg,Images/MSR-VTT-videoTestVideo_video7776-shot0_1/img325.jpg,Images/MSR-VTT-videoTestVideo_video7776-shot0_1/img346.jpg,Images/MSR-VTT-videoTestVideo_video7776-shot0_1/img350.jpg,Images/MSR-VTT-videoTestVideo_video7776-shot0_1/img353.jpg,Images/MSR-VTT-videoTestVideo_video7776-shot0_1/img358.jpg,1402,35,0,2022-06-16_04h11.42.674,annotation,2021.2.3,Win32,70.41261794,,
,,,,,,,,,,,,,,,,,-0.016927083,-0.079427083,1,0,0,image_7,0,19,19,13,1,412,The man completely blocks the woman behind him in the frame ,H,0,2,MSR-VTT-videoTestVideo_video9179-shot0_1,Images/MSR-VTT-videoTestVideo_video9179-shot0_1/img50.jpg,Images/MSR-VTT-videoTestVideo_video9179-shot0_1/img53.jpg,Images/MSR-VTT-videoTestVideo_video9179-shot0_1/img57.jpg,Images/MSR-VTT-videoTestVideo_video9179-shot0_1/img64.jpg,Images/MSR-VTT-videoTestVideo_video9179-shot0_1/img67.jpg,Images/MSR-VTT-videoTestVideo_video9179-shot0_1/img70.jpg,Images/MSR-VTT-videoTestVideo_video9179-shot0_1/img71.jpg,Images/MSR-VTT-videoTestVideo_video9179-shot0_1/img75.jpg,Images/MSR-VTT-videoTestVideo_video9179-shot0_1/img79.jpg,Images/MSR-VTT-videoTestVideo_video9179-shot0_1/img82.jpg,791,35,0,2022-06-16_04h11.42.674,annotation,2021.2.3,Win32,70.41261794,,
,,,,,,,,,,,,,,,,,-0.02734375,0.140625,1,0,0,image_2,0,20,20,39,1,1118,A red and white photo of a red and white billboard.,M,0,0,MSR-VTT-videoTestVideo_video7803-shot2_0,Images/MSR-VTT-videoTestVideo_video7803-shot2_0/img0.jpg,Images/MSR-VTT-videoTestVideo_video7803-shot2_0/img3.jpg,Images/MSR-VTT-videoTestVideo_video7803-shot2_0/img7.jpg,Images/MSR-VTT-videoTestVideo_video7803-shot2_0/img11.jpg,Images/MSR-VTT-videoTestVideo_video7803-shot2_0/img29.jpg,Images/MSR-VTT-videoTestVideo_video7803-shot2_0/img46.jpg,Images/MSR-VTT-videoTestVideo_video7803-shot2_0/img48.jpg,Images/MSR-VTT-videoTestVideo_video7803-shot2_0/img50.jpg,Images/MSR-VTT-videoTestVideo_video7803-shot2_0/img69.jpg,Images/MSR-VTT-videoTestVideo_video7803-shot2_0/img72.jpg,1036,35,0,2022-06-16_04h11.42.674,annotation,2021.2.3,Win32,70.41261794,,
,,,,,,,,,,,,,,,,,-0.5390625,-0.126302083,1,0,0,image_5,0,21,21,22,1,1123,A shelf full of books and cereal on top of each other.,M,0,6,MSR-VTT-videoTestVideo_video9053-shot1_7,Images/MSR-VTT-videoTestVideo_video9053-shot1_7/img321.jpg,Images/MSR-VTT-videoTestVideo_video9053-shot1_7/img324.jpg,Images/MSR-VTT-videoTestVideo_video9053-shot1_7/img330.jpg,Images/MSR-VTT-videoTestVideo_video9053-shot1_7/img344.jpg,Images/MSR-VTT-videoTestVideo_video9053-shot1_7/img354.jpg,Images/MSR-VTT-videoTestVideo_video9053-shot1_7/img357.jpg,Images/MSR-VTT-videoTestVideo_video9053-shot1_7/img362.jpg,Images/MSR-VTT-videoTestVideo_video9053-shot1_7/img365.jpg,Images/MSR-VTT-videoTestVideo_video9053-shot1_7/img367.jpg,Images/MSR-VTT-videoTestVideo_video9053-shot1_7/img369.jpg,1362,35,0,2022-06-16_04h11.42.674,annotation,2021.2.3,Win32,70.41261794,,
,,,,,,,,,,,,,,,,,0.014322917,0.111979167,1,0,0,image_2,0,22,22,31,1,1313,Two people sitting at a table with beer and chips.,M,0,5,video-storytelling-videocamping_dBXYM3dQTSo-shot83_3,Images/video-storytelling-videocamping_dBXYM3dQTSo-shot83_3/img202.jpg,Images/video-storytelling-videocamping_dBXYM3dQTSo-shot83_3/img225.jpg,Images/video-storytelling-videocamping_dBXYM3dQTSo-shot83_3/img237.jpg,Images/video-storytelling-videocamping_dBXYM3dQTSo-shot83_3/img242.jpg,Images/video-storytelling-videocamping_dBXYM3dQTSo-shot83_3/img254.jpg,Images/video-storytelling-videocamping_dBXYM3dQTSo-shot83_3/img273.jpg,Images/video-storytelling-videocamping_dBXYM3dQTSo-shot83_3/img311.jpg,Images/video-storytelling-videocamping_dBXYM3dQTSo-shot83_3/img322.jpg,Images/video-storytelling-videocamping_dBXYM3dQTSo-shot83_3/img326.jpg,Images/video-storytelling-videocamping_dBXYM3dQTSo-shot83_3/img351.jpg,825,35,0,2022-06-16_04h11.42.674,annotation,2021.2.3,Win32,70.41261794,,
,,,,,,,,,,,,,,,,,0.188802083,-0.125,1,0,0,image_8,0,23,23,20,1,268,A woman in a bridal gown is facing the camera from a distance with only the arm of her walking companion visible.,H,0,0,video-storytelling-videowedding_46xhFCXBMJs-shot62_0,Images/video-storytelling-videowedding_46xhFCXBMJs-shot62_0/img0.jpg,Images/video-storytelling-videowedding_46xhFCXBMJs-shot62_0/img26.jpg,Images/video-storytelling-videowedding_46xhFCXBMJs-shot62_0/img41.jpg,Images/video-storytelling-videowedding_46xhFCXBMJs-shot62_0/img50.jpg,Images/video-storytelling-videowedding_46xhFCXBMJs-shot62_0/img71.jpg,Images/video-storytelling-videowedding_46xhFCXBMJs-shot62_0/img76.jpg,Images/video-storytelling-videowedding_46xhFCXBMJs-shot62_0/img78.jpg,Images/video-storytelling-videowedding_46xhFCXBMJs-shot62_0/img79.jpg,Images/video-storytelling-videowedding_46xhFCXBMJs-shot62_0/img81.jpg,Images/video-storytelling-videowedding_46xhFCXBMJs-shot62_0/img85.jpg,1785,35,0,2022-06-16_04h11.42.674,annotation,2021.2.3,Win32,70.41261794,,
,,,,,,,,,,,,,,,,,0.196614583,-0.095052083,1,0,0,image_8,0,24,24,28,1,1465,A painting of a person holding a banana on a wire.,M,0,4,video-storytelling-videobirthday__amwPjAcoC8-shot80_3,Images/video-storytelling-videobirthday__amwPjAcoC8-shot80_3/img116.jpg,Images/video-storytelling-videobirthday__amwPjAcoC8-shot80_3/img122.jpg,Images/video-storytelling-videobirthday__amwPjAcoC8-shot80_3/img127.jpg,Images/video-storytelling-videobirthday__amwPjAcoC8-shot80_3/img131.jpg,Images/video-storytelling-videobirthday__amwPjAcoC8-shot80_3/img135.jpg,Images/video-storytelling-videobirthday__amwPjAcoC8-shot80_3/img145.jpg,Images/video-storytelling-videobirthday__amwPjAcoC8-shot80_3/img160.jpg,Images/video-storytelling-videobirthday__amwPjAcoC8-shot80_3/img163.jpg,Images/video-storytelling-videobirthday__amwPjAcoC8-shot80_3/img174.jpg,Images/video-storytelling-videobirthday__amwPjAcoC8-shot80_3/img195.jpg,1797,35,0,2022-06-16_04h11.42.674,annotation,2021.2.3,Win32,70.41261794,,
,,,,,,,,,,,,,,,,,0.02734375,-0.151041667,1,0,0,image_7,0,25,25,18,1,949,The horse and rider are facing to the left.  The horse has started to rear back a little.  You can clearly see all four legs of the horse. ,H,0,7,MSR-VTT-videoTestVideo_video9649-shot1_2,Images/MSR-VTT-videoTestVideo_video9649-shot1_2/img89.jpg,Images/MSR-VTT-videoTestVideo_video9649-shot1_2/img109.jpg,Images/MSR-VTT-videoTestVideo_video9649-shot1_2/img117.jpg,Images/MSR-VTT-videoTestVideo_video9649-shot1_2/img128.jpg,Images/MSR-VTT-videoTestVideo_video9649-shot1_2/img133.jpg,Images/MSR-VTT-videoTestVideo_video9649-shot1_2/img145.jpg,Images/MSR-VTT-videoTestVideo_video9649-shot1_2/img155.jpg,Images/MSR-VTT-videoTestVideo_video9649-shot1_2/img169.jpg,Images/MSR-VTT-videoTestVideo_video9649-shot1_2/img174.jpg,Images/MSR-VTT-videoTestVideo_video9649-shot1_2/img181.jpg,1192,35,0,2022-06-16_04h11.42.674,annotation,2021.2.3,Win32,70.41261794,,
,,,,,,,,,,,,,,,,,-0.028645833,-0.088541667,1,0,0,image_7,0,26,26,51,1,967,There is a person on the left side of the image in a greyish suit.  The left arm of that person is just starting to get cut off on the left side of the image. ,H,0,5,MSR-VTT-videoTestVideo_video8209-shot1_0,Images/MSR-VTT-videoTestVideo_video8209-shot1_0/img0.jpg,Images/MSR-VTT-videoTestVideo_video8209-shot1_0/img6.jpg,Images/MSR-VTT-videoTestVideo_video8209-shot1_0/img7.jpg,Images/MSR-VTT-videoTestVideo_video8209-shot1_0/img11.jpg,Images/MSR-VTT-videoTestVideo_video8209-shot1_0/img15.jpg,Images/MSR-VTT-videoTestVideo_video8209-shot1_0/img18.jpg,Images/MSR-VTT-videoTestVideo_video8209-shot1_0/img21.jpg,Images/MSR-VTT-videoTestVideo_video8209-shot1_0/img25.jpg,Images/MSR-VTT-videoTestVideo_video8209-shot1_0/img41.jpg,Images/MSR-VTT-videoTestVideo_video8209-shot1_0/img130.jpg,902,35,0,2022-06-16_04h11.42.674,annotation,2021.2.3,Win32,70.41261794,,
,,,,,,,,,,,,,,,,,0.510416667,-0.1328125,1,0,0,image_9,0,27,27,11,1,589,A rope is going across the right side of the image with a knot at the bottom of it.,H,0,9,video-storytelling-videocamping_EytINruY3-U-shot31_1,Images/video-storytelling-videocamping_EytINruY3-U-shot31_1/img204.jpg,Images/video-storytelling-videocamping_EytINruY3-U-shot31_1/img205.jpg,Images/video-storytelling-videocamping_EytINruY3-U-shot31_1/img250.jpg,Images/video-storytelling-videocamping_EytINruY3-U-shot31_1/img268.jpg,Images/video-storytelling-videocamping_EytINruY3-U-shot31_1/img330.jpg,Images/video-storytelling-videocamping_EytINruY3-U-shot31_1/img411.jpg,Images/video-storytelling-videocamping_EytINruY3-U-shot31_1/img461.jpg,Images/video-storytelling-videocamping_EytINruY3-U-shot31_1/img492.jpg,Images/video-storytelling-videocamping_EytINruY3-U-shot31_1/img514.jpg,Images/video-storytelling-videocamping_EytINruY3-U-shot31_1/img535.jpg,262,35,0,2022-06-16_04h11.42.674,annotation,2021.2.3,Win32,70.41261794,,
,,,,,,,,,,,,,,,,,-0.462239583,0.173177083,1,0,0,image_0,0,28,28,16,1,567,"The boy in a white T-shirt has his hands together which are under a shadow. At the same time, the girl furthest to the left has her hands down on her lap.",H,0,3,video-storytelling-videobirthday_fwpYnUDbusw-shot61_0,Images/video-storytelling-videobirthday_fwpYnUDbusw-shot61_0/img2.jpg,Images/video-storytelling-videobirthday_fwpYnUDbusw-shot61_0/img39.jpg,Images/video-storytelling-videobirthday_fwpYnUDbusw-shot61_0/img55.jpg,Images/video-storytelling-videobirthday_fwpYnUDbusw-shot61_0/img70.jpg,Images/video-storytelling-videobirthday_fwpYnUDbusw-shot61_0/img99.jpg,Images/video-storytelling-videobirthday_fwpYnUDbusw-shot61_0/img120.jpg,Images/video-storytelling-videobirthday_fwpYnUDbusw-shot61_0/img135.jpg,Images/video-storytelling-videobirthday_fwpYnUDbusw-shot61_0/img176.jpg,Images/video-storytelling-videobirthday_fwpYnUDbusw-shot61_0/img211.jpg,Images/video-storytelling-videobirthday_fwpYnUDbusw-shot61_0/img267.jpg,1206,35,0,2022-06-16_04h11.42.674,annotation,2021.2.3,Win32,70.41261794,,
,,,,,,,,,,,,,,,,,-0.041666667,-0.118489583,1,0,0,image_7,0,29,29,6,1,195,"The bride and groom are looking at the man in the black suit, the bride is smiling while her arms are extended in front of her.",H,0,7,video-storytelling-videowedding_Bp8t824h5NE-shot69_1,Images/video-storytelling-videowedding_Bp8t824h5NE-shot69_1/img227.jpg,Images/video-storytelling-videowedding_Bp8t824h5NE-shot69_1/img250.jpg,Images/video-storytelling-videowedding_Bp8t824h5NE-shot69_1/img275.jpg,Images/video-storytelling-videowedding_Bp8t824h5NE-shot69_1/img323.jpg,Images/video-storytelling-videowedding_Bp8t824h5NE-shot69_1/img428.jpg,Images/video-storytelling-videowedding_Bp8t824h5NE-shot69_1/img477.jpg,Images/video-storytelling-videowedding_Bp8t824h5NE-shot69_1/img492.jpg,Images/video-storytelling-videowedding_Bp8t824h5NE-shot69_1/img540.jpg,Images/video-storytelling-videowedding_Bp8t824h5NE-shot69_1/img565.jpg,Images/video-storytelling-videowedding_Bp8t824h5NE-shot69_1/img602.jpg,403,35,0,2022-06-16_04h11.42.674,annotation,2021.2.3,Win32,70.41261794,,
,,,,,,,,,,,,,,,,,0.0390625,-0.154947917,1,0,0,image_7,0,30,30,4,1,832,"The right side of the woman's mouth is open. The text is very light, not readable.",H,0,8,MSR-VTT-videoTestVideo_video7954-shot1_1,Images/MSR-VTT-videoTestVideo_video7954-shot1_1/img183.jpg,Images/MSR-VTT-videoTestVideo_video7954-shot1_1/img213.jpg,Images/MSR-VTT-videoTestVideo_video7954-shot1_1/img228.jpg,Images/MSR-VTT-videoTestVideo_video7954-shot1_1/img255.jpg,Images/MSR-VTT-videoTestVideo_video7954-shot1_1/img293.jpg,Images/MSR-VTT-videoTestVideo_video7954-shot1_1/img303.jpg,Images/MSR-VTT-videoTestVideo_video7954-shot1_1/img348.jpg,Images/MSR-VTT-videoTestVideo_video7954-shot1_1/img377.jpg,Images/MSR-VTT-videoTestVideo_video7954-shot1_1/img382.jpg,Images/MSR-VTT-videoTestVideo_video7954-shot1_1/img385.jpg,1730,35,0,2022-06-16_04h11.42.674,annotation,2021.2.3,Win32,70.41261794,,
,,,,,,,,,,,,,,,,,0.49609375,-0.1328125,1,0,0,image_9,0,31,31,40,1,672,The mouse is looking in the camera.,H,0,9,video-storytelling-videobirthday__amwPjAcoC8-shot29_0,Images/video-storytelling-videobirthday__amwPjAcoC8-shot29_0/img0.jpg,Images/video-storytelling-videobirthday__amwPjAcoC8-shot29_0/img19.jpg,Images/video-storytelling-videobirthday__amwPjAcoC8-shot29_0/img56.jpg,Images/video-storytelling-videobirthday__amwPjAcoC8-shot29_0/img81.jpg,Images/video-storytelling-videobirthday__amwPjAcoC8-shot29_0/img86.jpg,Images/video-storytelling-videobirthday__amwPjAcoC8-shot29_0/img93.jpg,Images/video-storytelling-videobirthday__amwPjAcoC8-shot29_0/img105.jpg,Images/video-storytelling-videobirthday__amwPjAcoC8-shot29_0/img111.jpg,Images/video-storytelling-videobirthday__amwPjAcoC8-shot29_0/img119.jpg,Images/video-storytelling-videobirthday__amwPjAcoC8-shot29_0/img130.jpg,1407,35,0,2022-06-16_04h11.42.674,annotation,2021.2.3,Win32,70.41261794,,
,,,,,,,,,,,,,,,,,-0.029947917,0.118489583,1,0,0,image_2,0,32,32,42,1,1887,A young girl holding a cell phone in her hand.,M,1,4,MSR-VTT-videoTestVideo_video9189-shot3_0,Images/MSR-VTT-videoTestVideo_video9189-shot3_0/img0.jpg,Images/MSR-VTT-videoTestVideo_video9189-shot3_0/img3.jpg,Images/MSR-VTT-videoTestVideo_video9189-shot3_0/img11.jpg,Images/MSR-VTT-videoTestVideo_video9189-shot3_0/img15.jpg,Images/MSR-VTT-videoTestVideo_video9189-shot3_0/img22.jpg,Images/MSR-VTT-videoTestVideo_video9189-shot3_0/img24.jpg,Images/MSR-VTT-videoTestVideo_video9189-shot3_0/img32.jpg,Images/MSR-VTT-videoTestVideo_video9189-shot3_0/img35.jpg,Images/MSR-VTT-videoTestVideo_video9189-shot3_0/img39.jpg,Images/MSR-VTT-videoTestVideo_video9189-shot3_0/img45.jpg,669,35,0,2022-06-16_04h11.42.674,annotation,2021.2.3,Win32,70.41261794,,
,,,,,,,,,,,,,,,,,0.0234375,0.126302083,1,0,0,image_2,0,33,33,33,1,1676,A group of children standing next to balloons.,M,0,4,video-storytelling-videobirthday__amwPjAcoC8-shot68_4,Images/video-storytelling-videobirthday__amwPjAcoC8-shot68_4/img102.jpg,Images/video-storytelling-videobirthday__amwPjAcoC8-shot68_4/img108.jpg,Images/video-storytelling-videobirthday__amwPjAcoC8-shot68_4/img113.jpg,Images/video-storytelling-videobirthday__amwPjAcoC8-shot68_4/img118.jpg,Images/video-storytelling-videobirthday__amwPjAcoC8-shot68_4/img124.jpg,Images/video-storytelling-videobirthday__amwPjAcoC8-shot68_4/img131.jpg,Images/video-storytelling-videobirthday__amwPjAcoC8-shot68_4/img136.jpg,Images/video-storytelling-videobirthday__amwPjAcoC8-shot68_4/img141.jpg,Images/video-storytelling-videobirthday__amwPjAcoC8-shot68_4/img145.jpg,Images/video-storytelling-videobirthday__amwPjAcoC8-shot68_4/img152.jpg,1530,35,0,2022-06-16_04h11.42.674,annotation,2021.2.3,Win32,70.41261794,,
,,,,,,,,,,,,,,,,,0.544270833,0.154947917,1,0,0,image_4,0,34,34,23,1,1195,A person is cooking a cake on a table.,M,0,6,YouCook-video0008-shot2_2,Images/YouCook-video0008-shot2_2/img423.jpg,Images/YouCook-video0008-shot2_2/img425.jpg,Images/YouCook-video0008-shot2_2/img440.jpg,Images/YouCook-video0008-shot2_2/img451.jpg,Images/YouCook-video0008-shot2_2/img458.jpg,Images/YouCook-video0008-shot2_2/img462.jpg,Images/YouCook-video0008-shot2_2/img469.jpg,Images/YouCook-video0008-shot2_2/img488.jpg,Images/YouCook-video0008-shot2_2/img491.jpg,Images/YouCook-video0008-shot2_2/img525.jpg,1492,35,0,2022-06-16_04h11.42.674,annotation,2021.2.3,Win32,70.41261794,,
,,,,,,,,,,,,,,,,,0.50390625,-0.1171875,1,0,0,image_9,0,35,35,21,1,1815,A group of people walking on a sidewalk next to a building.,M,0,5,MSR-VTT-videoTestVideo_video8306-shot1_0,Images/MSR-VTT-videoTestVideo_video8306-shot1_0/img0.jpg,Images/MSR-VTT-videoTestVideo_video8306-shot1_0/img2.jpg,Images/MSR-VTT-videoTestVideo_video8306-shot1_0/img6.jpg,Images/MSR-VTT-videoTestVideo_video8306-shot1_0/img15.jpg,Images/MSR-VTT-videoTestVideo_video8306-shot1_0/img22.jpg,Images/MSR-VTT-videoTestVideo_video8306-shot1_0/img39.jpg,Images/MSR-VTT-videoTestVideo_video8306-shot1_0/img54.jpg,Images/MSR-VTT-videoTestVideo_video8306-shot1_0/img68.jpg,Images/MSR-VTT-videoTestVideo_video8306-shot1_0/img86.jpg,Images/MSR-VTT-videoTestVideo_video8306-shot1_0/img94.jpg,706,35,0,2022-06-16_04h11.42.674,annotation,2021.2.3,Win32,70.41261794,,
,,,,,,,,,,,,,,,,,-0.020833333,0.12109375,1,0,0,image_2,0,36,36,53,1,1442,A person is standing next to a trash can.,M,0,7,MSR-VTT-videoTestVideo_video8203-shot1_2,Images/MSR-VTT-videoTestVideo_video8203-shot1_2/img109.jpg,Images/MSR-VTT-videoTestVideo_video8203-shot1_2/img112.jpg,Images/MSR-VTT-videoTestVideo_video8203-shot1_2/img116.jpg,Images/MSR-VTT-videoTestVideo_video8203-shot1_2/img120.jpg,Images/MSR-VTT-videoTestVideo_video8203-shot1_2/img123.jpg,Images/MSR-VTT-videoTestVideo_video8203-shot1_2/img133.jpg,Images/MSR-VTT-videoTestVideo_video8203-shot1_2/img141.jpg,Images/MSR-VTT-videoTestVideo_video8203-shot1_2/img150.jpg,Images/MSR-VTT-videoTestVideo_video8203-shot1_2/img160.jpg,Images/MSR-VTT-videoTestVideo_video8203-shot1_2/img188.jpg,519,35,0,2022-06-16_04h11.42.674,annotation,2021.2.3,Win32,70.41261794,,
,,,,,,,,,,,,,,,,,-0.272135417,0.13671875,1,0,0,image_1,0,37,37,2,1,1139,A baby drinking from a bottle next to a table.,M,0,5,video-storytelling-videochristmas_5RR_sRzKODA-shot30_6,Images/video-storytelling-videochristmas_5RR_sRzKODA-shot30_6/img345.jpg,Images/video-storytelling-videochristmas_5RR_sRzKODA-shot30_6/img349.jpg,Images/video-storytelling-videochristmas_5RR_sRzKODA-shot30_6/img350.jpg,Images/video-storytelling-videochristmas_5RR_sRzKODA-shot30_6/img352.jpg,Images/video-storytelling-videochristmas_5RR_sRzKODA-shot30_6/img358.jpg,Images/video-storytelling-videochristmas_5RR_sRzKODA-shot30_6/img361.jpg,Images/video-storytelling-videochristmas_5RR_sRzKODA-shot30_6/img365.jpg,Images/video-storytelling-videochristmas_5RR_sRzKODA-shot30_6/img383.jpg,Images/video-storytelling-videochristmas_5RR_sRzKODA-shot30_6/img387.jpg,Images/video-storytelling-videochristmas_5RR_sRzKODA-shot30_6/img393.jpg,984,35,0,2022-06-16_04h11.42.674,annotation,2021.2.3,Win32,70.41261794,,
,,,,,,,,,,,,,,,,,0.020833333,0.1171875,1,0,0,image_2,0,38,38,25,1,1969,A little boy standing next to a blue and white Christmas tree.,M,1,0,video-storytelling-videobirthday__amwPjAcoC8-shot35_0,Images/video-storytelling-videobirthday__amwPjAcoC8-shot35_0/img0.jpg,Images/video-storytelling-videobirthday__amwPjAcoC8-shot35_0/img3.jpg,Images/video-storytelling-videobirthday__amwPjAcoC8-shot35_0/img7.jpg,Images/video-storytelling-videobirthday__amwPjAcoC8-shot35_0/img9.jpg,Images/video-storytelling-videobirthday__amwPjAcoC8-shot35_0/img11.jpg,Images/video-storytelling-videobirthday__amwPjAcoC8-shot35_0/img12.jpg,Images/video-storytelling-videobirthday__amwPjAcoC8-shot35_0/img13.jpg,Images/video-storytelling-videobirthday__amwPjAcoC8-shot35_0/img16.jpg,Images/video-storytelling-videobirthday__amwPjAcoC8-shot35_0/img20.jpg,Images/video-storytelling-videobirthday__amwPjAcoC8-shot35_0/img24.jpg,2065,35,0,2022-06-16_04h11.42.674,annotation,2021.2.3,Win32,70.41261794,,
,,,,,,,,,,,,,,,,,-0.223958333,0.158854167,1,0,0,image_1,0,39,39,43,1,1901,A group of people walking around in a crowded room.,M,0,3,MSR-VTT-videoTestVideo_video7522-shot8_0,Images/MSR-VTT-videoTestVideo_video7522-shot8_0/img0.jpg,Images/MSR-VTT-videoTestVideo_video7522-shot8_0/img1.jpg,Images/MSR-VTT-videoTestVideo_video7522-shot8_0/img2.jpg,Images/MSR-VTT-videoTestVideo_video7522-shot8_0/img3.jpg,Images/MSR-VTT-videoTestVideo_video7522-shot8_0/img4.jpg,Images/MSR-VTT-videoTestVideo_video7522-shot8_0/img5.jpg,Images/MSR-VTT-videoTestVideo_video7522-shot8_0/img6.jpg,Images/MSR-VTT-videoTestVideo_video7522-shot8_0/img7.jpg,Images/MSR-VTT-videoTestVideo_video7522-shot8_0/img8.jpg,Images/MSR-VTT-videoTestVideo_video7522-shot8_0/img9.jpg,1064,35,0,2022-06-16_04h11.42.674,annotation,2021.2.3,Win32,70.41261794,,
,,,,,,,,,,,,,,,,,-0.005208333,0.16796875,1,0,0,image_2,0,40,40,57,1,279,The dog mascot has its hands out at 90 degree angles from its body and the red hat is not very visible. ,H,0,6,video-storytelling-videobirthday__amwPjAcoC8-shot75_0,Images/video-storytelling-videobirthday__amwPjAcoC8-shot75_0/img0.jpg,Images/video-storytelling-videobirthday__amwPjAcoC8-shot75_0/img2.jpg,Images/video-storytelling-videobirthday__amwPjAcoC8-shot75_0/img4.jpg,Images/video-storytelling-videobirthday__amwPjAcoC8-shot75_0/img8.jpg,Images/video-storytelling-videobirthday__amwPjAcoC8-shot75_0/img22.jpg,Images/video-storytelling-videobirthday__amwPjAcoC8-shot75_0/img38.jpg,Images/video-storytelling-videobirthday__amwPjAcoC8-shot75_0/img44.jpg,Images/video-storytelling-videobirthday__amwPjAcoC8-shot75_0/img52.jpg,Images/video-storytelling-videobirthday__amwPjAcoC8-shot75_0/img56.jpg,Images/video-storytelling-videobirthday__amwPjAcoC8-shot75_0/img59.jpg,237,35,0,2022-06-16_04h11.42.674,annotation,2021.2.3,Win32,70.41261794,,
,,,,,,,,,,,,,,,,,0.4765625,-0.141927083,1,0,0,image_9,0,41,41,60,1,2,Green type writer with a red tape. ,H,,9,open-images-531_0dd4eb59d465a8be,Checks/check3/open-images-503_1ccd6fa641154ebbimg7.jpg,Checks/check3/open-images-1852_00faf52058ad28b8img4.jpg,Checks/check3/open-images-386_1b2e28d6d994603eimg1.jpg,Checks/check3/open-images-471_1121e9f97c200ac0img8.jpg,Checks/check3/open-images-1886_3db71eaddb618934img8.jpg,Checks/check3/open-images-1696_20a4ebf0c0f76b05img6.jpg,Checks/check3/open-images-2447_128483a48e1552f4img6.jpg,Checks/check3/open-images-2994_9965cbf8aa20bda0img2.jpg,Checks/check3/open-images-1068_03d63613107970b3img6.jpg,Checks/check3/open-images-531_0dd4eb59d465a8beimg9.jpg,,,1,2022-06-16_04h11.42.674,annotation,2021.2.3,Win32,70.41261794,,
,,,,,,,,,,,,,,,,,0.497395833,-0.147135417,1,0,0,image_9,0,42,42,56,1,1873,A close up of a person standing in a grassy area.,M,1,4,MSR-VTT-videoTestVideo_video9519-shot4_1,Images/MSR-VTT-videoTestVideo_video9519-shot4_1/img33.jpg,Images/MSR-VTT-videoTestVideo_video9519-shot4_1/img38.jpg,Images/MSR-VTT-videoTestVideo_video9519-shot4_1/img40.jpg,Images/MSR-VTT-videoTestVideo_video9519-shot4_1/img42.jpg,Images/MSR-VTT-videoTestVideo_video9519-shot4_1/img43.jpg,Images/MSR-VTT-videoTestVideo_video9519-shot4_1/img46.jpg,Images/MSR-VTT-videoTestVideo_video9519-shot4_1/img51.jpg,Images/MSR-VTT-videoTestVideo_video9519-shot4_1/img53.jpg,Images/MSR-VTT-videoTestVideo_video9519-shot4_1/img56.jpg,Images/MSR-VTT-videoTestVideo_video9519-shot4_1/img58.jpg,1391,35,0,2022-06-16_04h11.42.674,annotation,2021.2.3,Win32,70.41261794,,
,,,,,,,,,,,,,,,,,0.4921875,-0.072916667,1,0,0,image_9,0,43,43,54,1,484,"The fender with the letters on it is pointing towards the bottom right. There's a tiny black spot or hole directly under the muffler, and another one close by to the left.",H,0,9,MSR-VTT-videoTestVideo_video9996-shot1_2,Images/MSR-VTT-videoTestVideo_video9996-shot1_2/img117.jpg,Images/MSR-VTT-videoTestVideo_video9996-shot1_2/img126.jpg,Images/MSR-VTT-videoTestVideo_video9996-shot1_2/img130.jpg,Images/MSR-VTT-videoTestVideo_video9996-shot1_2/img134.jpg,Images/MSR-VTT-videoTestVideo_video9996-shot1_2/img140.jpg,Images/MSR-VTT-videoTestVideo_video9996-shot1_2/img143.jpg,Images/MSR-VTT-videoTestVideo_video9996-shot1_2/img147.jpg,Images/MSR-VTT-videoTestVideo_video9996-shot1_2/img151.jpg,Images/MSR-VTT-videoTestVideo_video9996-shot1_2/img158.jpg,Images/MSR-VTT-videoTestVideo_video9996-shot1_2/img162.jpg,1386,35,0,2022-06-16_04h11.42.674,annotation,2021.2.3,Win32,70.41261794,,
,,,,,,,,,,,,,,,,,-0.2734375,0.09375,1,0,0,image_1,0,44,44,52,1,1797,A woman standing in a room holding a tennis racket.,M,0,6,MSR-VTT-videoTestVideo_video9044-shot0_0,Images/MSR-VTT-videoTestVideo_video9044-shot0_0/img0.jpg,Images/MSR-VTT-videoTestVideo_video9044-shot0_0/img4.jpg,Images/MSR-VTT-videoTestVideo_video9044-shot0_0/img10.jpg,Images/MSR-VTT-videoTestVideo_video9044-shot0_0/img13.jpg,Images/MSR-VTT-videoTestVideo_video9044-shot0_0/img25.jpg,Images/MSR-VTT-videoTestVideo_video9044-shot0_0/img31.jpg,Images/MSR-VTT-videoTestVideo_video9044-shot0_0/img39.jpg,Images/MSR-VTT-videoTestVideo_video9044-shot0_0/img43.jpg,Images/MSR-VTT-videoTestVideo_video9044-shot0_0/img46.jpg,Images/MSR-VTT-videoTestVideo_video9044-shot0_0/img56.jpg,1661,35,0,2022-06-16_04h11.42.674,annotation,2021.2.3,Win32,70.41261794,,
,,,,,,,,,,,,,,,,,-0.2734375,0.09375,1,0,0,image_1,0,45,45,9,1,789,the mixing spoon is left center in the bowl,H,0,7,YouCook-video0036-shot11_0,Images/YouCook-video0036-shot11_0/img0.jpg,Images/YouCook-video0036-shot11_0/img3.jpg,Images/YouCook-video0036-shot11_0/img7.jpg,Images/YouCook-video0036-shot11_0/img10.jpg,Images/YouCook-video0036-shot11_0/img12.jpg,Images/YouCook-video0036-shot11_0/img23.jpg,Images/YouCook-video0036-shot11_0/img26.jpg,Images/YouCook-video0036-shot11_0/img34.jpg,Images/YouCook-video0036-shot11_0/img40.jpg,Images/YouCook-video0036-shot11_0/img41.jpg,1260,35,0,2022-06-16_04h11.42.674,annotation,2021.2.3,Win32,70.41261794,,
,,,,,,,,,,,,,,,,,0.501302083,-0.095052083,1,0,0,image_9,0,46,46,29,1,674,The person is showing the bagel to the camera.  Almost the entire plate is visible. ,H,1,9,video-storytelling-videocamping_dBXYM3dQTSo-shot69_6,Images/video-storytelling-videocamping_dBXYM3dQTSo-shot69_6/img283.jpg,Images/video-storytelling-videocamping_dBXYM3dQTSo-shot69_6/img292.jpg,Images/video-storytelling-videocamping_dBXYM3dQTSo-shot69_6/img300.jpg,Images/video-storytelling-videocamping_dBXYM3dQTSo-shot69_6/img303.jpg,Images/video-storytelling-videocamping_dBXYM3dQTSo-shot69_6/img307.jpg,Images/video-storytelling-videocamping_dBXYM3dQTSo-shot69_6/img311.jpg,Images/video-storytelling-videocamping_dBXYM3dQTSo-shot69_6/img321.jpg,Images/video-storytelling-videocamping_dBXYM3dQTSo-shot69_6/img326.jpg,Images/video-storytelling-videocamping_dBXYM3dQTSo-shot69_6/img332.jpg,Images/video-storytelling-videocamping_dBXYM3dQTSo-shot69_6/img339.jpg,1168,35,0,2022-06-16_04h11.42.674,annotation,2021.2.3,Win32,70.41261794,,
,,,,,,,,,,,,,,,,,-0.322916667,0.1328125,1,0,0,image_1,0,47,47,62,1,4,A penguin holding a piece of paper with text on it. ,H,,1,open-images-2521_074d6af730ed17a6,Checks/check5/open-images-509_4d8bd994cb8c6eaeimg0.jpg,Checks/check5/open-images-2521_074d6af730ed17a6img1.jpg,Checks/check5/open-images-1365_a00a5fde334ae45aimg4.jpg,Checks/check5/open-images-1602_44092afdeab39e73img6.jpg,Checks/check5/open-images-1032_059f3cdfb85ee0ceimg3.jpg,Checks/check5/open-images-727_25b77fff36adba66img2.jpg,Checks/check5/open-images-2208_0fb92b9978d98575img2.jpg,Checks/check5/open-images-1305_05769e6abb16fdc8img9.jpg,Checks/check5/open-images-2676_052dbf7b4899430bimg1.jpg,Checks/check5/open-images-2569_1e81d79bb796a2dbimg7.jpg,,,1,2022-06-16_04h11.42.674,annotation,2021.2.3,Win32,70.41261794,,
,,,,,,,,,,,,,,,,,-0.247395833,-0.095052083,1,0,0,image_6,0,48,48,34,1,790,the picture is in focus and his arms are behind his back,H,0,8,MSR-VTT-videoTestVideo_video9489-shot2_1,Images/MSR-VTT-videoTestVideo_video9489-shot2_1/img42.jpg,Images/MSR-VTT-videoTestVideo_video9489-shot2_1/img44.jpg,Images/MSR-VTT-videoTestVideo_video9489-shot2_1/img45.jpg,Images/MSR-VTT-videoTestVideo_video9489-shot2_1/img47.jpg,Images/MSR-VTT-videoTestVideo_video9489-shot2_1/img49.jpg,Images/MSR-VTT-videoTestVideo_video9489-shot2_1/img51.jpg,Images/MSR-VTT-videoTestVideo_video9489-shot2_1/img54.jpg,Images/MSR-VTT-videoTestVideo_video9489-shot2_1/img56.jpg,Images/MSR-VTT-videoTestVideo_video9489-shot2_1/img59.jpg,Images/MSR-VTT-videoTestVideo_video9489-shot2_1/img60.jpg,578,35,0,2022-06-16_04h11.42.674,annotation,2021.2.3,Win32,70.41261794,,
,,,,,,,,,,,,,,,,,0.00390625,0.151041667,1,0,0,image_2,0,49,49,3,1,1305,A woman sitting in the back of a car with a rabbit.,M,1,2,video-storytelling-videobirthday_fwpYnUDbusw-shot28_0,Images/video-storytelling-videobirthday_fwpYnUDbusw-shot28_0/img0.jpg,Images/video-storytelling-videobirthday_fwpYnUDbusw-shot28_0/img1.jpg,Images/video-storytelling-videobirthday_fwpYnUDbusw-shot28_0/img3.jpg,Images/video-storytelling-videobirthday_fwpYnUDbusw-shot28_0/img4.jpg,Images/video-storytelling-videobirthday_fwpYnUDbusw-shot28_0/img7.jpg,Images/video-storytelling-videobirthday_fwpYnUDbusw-shot28_0/img12.jpg,Images/video-storytelling-videobirthday_fwpYnUDbusw-shot28_0/img15.jpg,Images/video-storytelling-videobirthday_fwpYnUDbusw-shot28_0/img18.jpg,Images/video-storytelling-videobirthday_fwpYnUDbusw-shot28_0/img19.jpg,Images/video-storytelling-videobirthday_fwpYnUDbusw-shot28_0/img20.jpg,668,35,0,2022-06-16_04h11.42.674,annotation,2021.2.3,Win32,70.41261794,,
,,,,,,,,,,,,,,,,,0.48046875,-0.140625,1,0,0,image_9,0,50,50,19,1,1134,A man is holding a leg up in the air.,M,0,2,MSR-VTT-videoTestVideo_video8125-shot1_0,Images/MSR-VTT-videoTestVideo_video8125-shot1_0/img0.jpg,Images/MSR-VTT-videoTestVideo_video8125-shot1_0/img2.jpg,Images/MSR-VTT-videoTestVideo_video8125-shot1_0/img4.jpg,Images/MSR-VTT-videoTestVideo_video8125-shot1_0/img6.jpg,Images/MSR-VTT-videoTestVideo_video8125-shot1_0/img7.jpg,Images/MSR-VTT-videoTestVideo_video8125-shot1_0/img9.jpg,Images/MSR-VTT-videoTestVideo_video8125-shot1_0/img10.jpg,Images/MSR-VTT-videoTestVideo_video8125-shot1_0/img12.jpg,Images/MSR-VTT-videoTestVideo_video8125-shot1_0/img17.jpg,Images/MSR-VTT-videoTestVideo_video8125-shot1_0/img21.jpg,1354,35,0,2022-06-16_04h11.42.674,annotation,2021.2.3,Win32,70.41261794,,
,,,,,,,,,,,,,,,,,0.223958333,0.15234375,1,0,0,image_3,0,51,51,8,1,1672,A group of rabbits sitting on top of a table.,M,0,5,MSR-VTT-videoTestVideo_video8536-shot0_0,Images/MSR-VTT-videoTestVideo_video8536-shot0_0/img0.jpg,Images/MSR-VTT-videoTestVideo_video8536-shot0_0/img2.jpg,Images/MSR-VTT-videoTestVideo_video8536-shot0_0/img7.jpg,Images/MSR-VTT-videoTestVideo_video8536-shot0_0/img11.jpg,Images/MSR-VTT-videoTestVideo_video8536-shot0_0/img17.jpg,Images/MSR-VTT-videoTestVideo_video8536-shot0_0/img20.jpg,Images/MSR-VTT-videoTestVideo_video8536-shot0_0/img28.jpg,Images/MSR-VTT-videoTestVideo_video8536-shot0_0/img35.jpg,Images/MSR-VTT-videoTestVideo_video8536-shot0_0/img36.jpg,Images/MSR-VTT-videoTestVideo_video8536-shot0_0/img45.jpg,1827,35,0,2022-06-16_04h11.42.674,annotation,2021.2.3,Win32,70.41261794,,
,,,,,,,,,,,,,,,,,-0.080729167,0.10546875,1,0,0,image_2,0,52,52,0,1,1597,A woman standing in front of a table full of food.,M,0,5,video-storytelling-videobirthday_fwpYnUDbusw-shot8_0,Images/video-storytelling-videobirthday_fwpYnUDbusw-shot8_0/img0.jpg,Images/video-storytelling-videobirthday_fwpYnUDbusw-shot8_0/img3.jpg,Images/video-storytelling-videobirthday_fwpYnUDbusw-shot8_0/img14.jpg,Images/video-storytelling-videobirthday_fwpYnUDbusw-shot8_0/img38.jpg,Images/video-storytelling-videobirthday_fwpYnUDbusw-shot8_0/img42.jpg,Images/video-storytelling-videobirthday_fwpYnUDbusw-shot8_0/img54.jpg,Images/video-storytelling-videobirthday_fwpYnUDbusw-shot8_0/img61.jpg,Images/video-storytelling-videobirthday_fwpYnUDbusw-shot8_0/img67.jpg,Images/video-storytelling-videobirthday_fwpYnUDbusw-shot8_0/img72.jpg,Images/video-storytelling-videobirthday_fwpYnUDbusw-shot8_0/img79.jpg,720,35,0,2022-06-16_04h11.42.674,annotation,2021.2.3,Win32,70.41261794,,
,,,,,,,,,,,,,,,,,-0.555989583,-0.098958333,1,0,0,image_5,0,53,53,59,1,1,The only picture of a hawk.  It is looking to the left.  You see lots of branches and darker blue sky. ,H,,5,open-images-958_686caac9c5b322e7,Checks/check2/open-images-2603_1b5152f01f0093e7img3.jpg,Checks/check2/open-images-1836_069810916ce5d675img8.jpg,Checks/check2/open-images-974_0748fdedc4bf8b7bimg2.jpg,Checks/check2/open-images-617_01fb725fb1aa7b04img6.jpg,Checks/check2/open-images-507_047769e1f977cd97img2.jpg,Checks/check2/open-images-958_686caac9c5b322e7img5.jpg,Checks/check2/open-images-1278_21851d9bf5dc05c9img7.jpg,Checks/check2/open-images-2424_05f04546e01499f2img0.jpg,Checks/check2/open-images-1529_1442b11a10a6aeadimg3.jpg,Checks/check2/open-images-514_2c523ddedc2561d4img1.jpg,,,1,2022-06-16_04h11.42.674,annotation,2021.2.3,Win32,70.41261794,,
,,,,,,,,,,,,,,,,,-0.55078125,0.209635417,1,0,0,image_0,0,54,54,45,1,1897,A woman standing in front of a refrigerator.,M,0,5,MSR-VTT-videoTestVideo_video8364-shot1_1,Images/MSR-VTT-videoTestVideo_video8364-shot1_1/img38.jpg,Images/MSR-VTT-videoTestVideo_video8364-shot1_1/img42.jpg,Images/MSR-VTT-videoTestVideo_video8364-shot1_1/img54.jpg,Images/MSR-VTT-videoTestVideo_video8364-shot1_1/img71.jpg,Images/MSR-VTT-videoTestVideo_video8364-shot1_1/img79.jpg,Images/MSR-VTT-videoTestVideo_video8364-shot1_1/img84.jpg,Images/MSR-VTT-videoTestVideo_video8364-shot1_1/img91.jpg,Images/MSR-VTT-videoTestVideo_video8364-shot1_1/img110.jpg,Images/MSR-VTT-videoTestVideo_video8364-shot1_1/img133.jpg,Images/MSR-VTT-videoTestVideo_video8364-shot1_1/img147.jpg,1017,35,0,2022-06-16_04h11.42.674,annotation,2021.2.3,Win32,70.41261794,,
,,,,,,,,,,,,,,,,,0.165364583,-0.118489583,1,0,0,image_8,0,55,55,32,1,1809,A book that is sitting on top of a rack.,M,0,8,MSR-VTT-videoTestVideo_video7075-shot1_3,Images/MSR-VTT-videoTestVideo_video7075-shot1_3/img135.jpg,Images/MSR-VTT-videoTestVideo_video7075-shot1_3/img140.jpg,Images/MSR-VTT-videoTestVideo_video7075-shot1_3/img141.jpg,Images/MSR-VTT-videoTestVideo_video7075-shot1_3/img143.jpg,Images/MSR-VTT-videoTestVideo_video7075-shot1_3/img144.jpg,Images/MSR-VTT-videoTestVideo_video7075-shot1_3/img153.jpg,Images/MSR-VTT-videoTestVideo_video7075-shot1_3/img172.jpg,Images/MSR-VTT-videoTestVideo_video7075-shot1_3/img175.jpg,Images/MSR-VTT-videoTestVideo_video7075-shot1_3/img191.jpg,Images/MSR-VTT-videoTestVideo_video7075-shot1_3/img213.jpg,1840,35,0,2022-06-16_04h11.42.674,annotation,2021.2.3,Win32,70.41261794,,
,,,,,,,,,,,,,,,,,0.032552083,-0.104166667,1,0,0,image_7,0,56,56,47,1,1660,A person cooking a meal on top of a stove.,M,0,9,YouCook-video0050-shot1_0,Images/YouCook-video0050-shot1_0/img0.jpg,Images/YouCook-video0050-shot1_0/img599.jpg,Images/YouCook-video0050-shot1_0/img601.jpg,Images/YouCook-video0050-shot1_0/img603.jpg,Images/YouCook-video0050-shot1_0/img604.jpg,Images/YouCook-video0050-shot1_0/img605.jpg,Images/YouCook-video0050-shot1_0/img607.jpg,Images/YouCook-video0050-shot1_0/img673.jpg,Images/YouCook-video0050-shot1_0/img774.jpg,Images/YouCook-video0050-shot1_0/img1906.jpg,1886,35,0,2022-06-16_04h11.42.674,annotation,2021.2.3,Win32,70.41261794,,
,,,,,,,,,,,,,,,,,-0.447916667,-0.115885417,1,0,0,image_5,0,57,57,30,1,1487,A close up of a person standing in front of a horse.,M,0,5,MSR-VTT-videoTestVideo_video7807-shot2_0,Images/MSR-VTT-videoTestVideo_video7807-shot2_0/img0.jpg,Images/MSR-VTT-videoTestVideo_video7807-shot2_0/img29.jpg,Images/MSR-VTT-videoTestVideo_video7807-shot2_0/img67.jpg,Images/MSR-VTT-videoTestVideo_video7807-shot2_0/img88.jpg,Images/MSR-VTT-videoTestVideo_video7807-shot2_0/img109.jpg,Images/MSR-VTT-videoTestVideo_video7807-shot2_0/img118.jpg,Images/MSR-VTT-videoTestVideo_video7807-shot2_0/img138.jpg,Images/MSR-VTT-videoTestVideo_video7807-shot2_0/img151.jpg,Images/MSR-VTT-videoTestVideo_video7807-shot2_0/img199.jpg,Images/MSR-VTT-videoTestVideo_video7807-shot2_0/img209.jpg,1702,35,0,2022-06-16_04h11.42.674,annotation,2021.2.3,Win32,70.41261794,,
,,,,,,,,,,,,,,,,,0.423177083,0.1796875,1,0,0,image_4,0,58,58,37,1,930,The shot of a woman talking to a man in a blue shirt is starting to get really dark but you can clearly see them. ,H,0,5,MSR-VTT-videoTestVideo_video8037-shot1_0,Images/MSR-VTT-videoTestVideo_video8037-shot1_0/img1.jpg,Images/MSR-VTT-videoTestVideo_video8037-shot1_0/img5.jpg,Images/MSR-VTT-videoTestVideo_video8037-shot1_0/img10.jpg,Images/MSR-VTT-videoTestVideo_video8037-shot1_0/img13.jpg,Images/MSR-VTT-videoTestVideo_video8037-shot1_0/img22.jpg,Images/MSR-VTT-videoTestVideo_video8037-shot1_0/img27.jpg,Images/MSR-VTT-videoTestVideo_video8037-shot1_0/img29.jpg,Images/MSR-VTT-videoTestVideo_video8037-shot1_0/img30.jpg,Images/MSR-VTT-videoTestVideo_video8037-shot1_0/img31.jpg,Images/MSR-VTT-videoTestVideo_video8037-shot1_0/img34.jpg,113,35,0,2022-06-16_04h11.42.674,annotation,2021.2.3,Win32,70.41261794,,
,,,,,,,,,,,,,,,,,0.02734375,0.201822917,1,0,0,image_2,0,59,59,27,1,818,Women's eyes are looking left but face is straight with can tilted sideways slightly by mouth.,H,0,3,video-storytelling-videocamping_1OzbiB1TIWI-shot11_3,Images/video-storytelling-videocamping_1OzbiB1TIWI-shot11_3/img142.jpg,Images/video-storytelling-videocamping_1OzbiB1TIWI-shot11_3/img146.jpg,Images/video-storytelling-videocamping_1OzbiB1TIWI-shot11_3/img156.jpg,Images/video-storytelling-videocamping_1OzbiB1TIWI-shot11_3/img168.jpg,Images/video-storytelling-videocamping_1OzbiB1TIWI-shot11_3/img172.jpg,Images/video-storytelling-videocamping_1OzbiB1TIWI-shot11_3/img175.jpg,Images/video-storytelling-videocamping_1OzbiB1TIWI-shot11_3/img179.jpg,Images/video-storytelling-videocamping_1OzbiB1TIWI-shot11_3/img183.jpg,Images/video-storytelling-videocamping_1OzbiB1TIWI-shot11_3/img185.jpg,Images/video-storytelling-videocamping_1OzbiB1TIWI-shot11_3/img196.jpg,681,35,0,2022-06-16_04h11.42.674,annotation,2021.2.3,Win32,70.41261794,,
,,,,,,,,,,,,,,,,,0.196614583,0.1171875,1,0,0,image_3,0,60,60,46,1,400,A bit of red can be seen of the object the brown character is dragging onto the screen.  ,H,0,3,MSR-VTT-videoTestVideo_video8655-shot1_0,Images/MSR-VTT-videoTestVideo_video8655-shot1_0/img0.jpg,Images/MSR-VTT-videoTestVideo_video8655-shot1_0/img4.jpg,Images/MSR-VTT-videoTestVideo_video8655-shot1_0/img7.jpg,Images/MSR-VTT-videoTestVideo_video8655-shot1_0/img8.jpg,Images/MSR-VTT-videoTestVideo_video8655-shot1_0/img12.jpg,Images/MSR-VTT-videoTestVideo_video8655-shot1_0/img14.jpg,Images/MSR-VTT-videoTestVideo_video8655-shot1_0/img15.jpg,Images/MSR-VTT-videoTestVideo_video8655-shot1_0/img17.jpg,Images/MSR-VTT-videoTestVideo_video8655-shot1_0/img19.jpg,Images/MSR-VTT-videoTestVideo_video8655-shot1_0/img20.jpg,1867,35,0,2022-06-16_04h11.42.674,annotation,2021.2.3,Win32,70.41261794,,
,,,,,,,,,,,,,,,,,0.049479167,0.079427083,1,0,0,image_2,0,61,61,26,1,1187,A picture of a frisbee in the grass.,M,0,0,MSR-VTT-videoTestVideo_video9169-shot2_0,Images/MSR-VTT-videoTestVideo_video9169-shot2_0/img0.jpg,Images/MSR-VTT-videoTestVideo_video9169-shot2_0/img4.jpg,Images/MSR-VTT-videoTestVideo_video9169-shot2_0/img8.jpg,Images/MSR-VTT-videoTestVideo_video9169-shot2_0/img12.jpg,Images/MSR-VTT-videoTestVideo_video9169-shot2_0/img14.jpg,Images/MSR-VTT-videoTestVideo_video9169-shot2_0/img17.jpg,Images/MSR-VTT-videoTestVideo_video9169-shot2_0/img18.jpg,Images/MSR-VTT-videoTestVideo_video9169-shot2_0/img20.jpg,Images/MSR-VTT-videoTestVideo_video9169-shot2_0/img21.jpg,Images/MSR-VTT-videoTestVideo_video9169-shot2_0/img24.jpg,1360,35,0,2022-06-16_04h11.42.674,annotation,2021.2.3,Win32,70.41261794,,
,,,,,,,,,,,,,,,,,-0.0078125,0.122395833,1,0,0,image_2,0,62,62,49,1,622,The cartoon raccoon is covering up most of the yellow box on the table. ,H,0,6,MSR-VTT-videoTestVideo_video9903-shot1_3,Images/MSR-VTT-videoTestVideo_video9903-shot1_3/img94.jpg,Images/MSR-VTT-videoTestVideo_video9903-shot1_3/img99.jpg,Images/MSR-VTT-videoTestVideo_video9903-shot1_3/img103.jpg,Images/MSR-VTT-videoTestVideo_video9903-shot1_3/img106.jpg,Images/MSR-VTT-videoTestVideo_video9903-shot1_3/img109.jpg,Images/MSR-VTT-videoTestVideo_video9903-shot1_3/img116.jpg,Images/MSR-VTT-videoTestVideo_video9903-shot1_3/img118.jpg,Images/MSR-VTT-videoTestVideo_video9903-shot1_3/img139.jpg,Images/MSR-VTT-videoTestVideo_video9903-shot1_3/img141.jpg,Images/MSR-VTT-videoTestVideo_video9903-shot1_3/img144.jpg,1604,35,0,2022-06-16_04h11.42.674,annotation,2021.2.3,Win32,70.41261794,,
,,,,,,,,,,,,,,,,,,,,,,,,,,,,,,,,,,,,,,,,,,,,,,,2022-06-16_04h11.42.674,annotation,2021.2.3,Win32,70.41261794,space,33.9056
