mturk,key_resp_2.keys,key_resp_2.rt,key_resp_3.keys,key_resp_3.rt,mouse_2.x,mouse_2.y,mouse_2.leftButton,mouse_2.midButton,mouse_2.rightButton,mouse_2.clicked_name,key_resp_5.keys,key_resp_5.rt,key_resp.keys,key_resp.rt,key_resp_6.keys,key_resp_6.rt,mouse.x,mouse.y,mouse.leftButton,mouse.midButton,mouse.rightButton,mouse.clicked_name,trials.thisRepN,trials.thisTrialN,trials.thisN,trials.thisIndex,trials.ran,N,caption,class_caption,model_guessed,target_idx,image_set,img1,img2,img3,img4,img5,img6,img7,img8,img9,img10,Q_id,block,is_check,date,expName,psychopyVersion,OS,frameRate,key_resp_7.keys,key_resp_7.rt
7420931,space,2.3779,space,1.9251,0.204928896,0.109615215,1,0,0,ex4,space,2.0875,space,2.5745,space,0.9301,0.284485939,-0.127205756,1,0,0,image_8,0,0,0,13,1,888,the fork is right inside the pan touchin the side of the pan,H,0,8,video-storytelling-videocamping_1OzbiB1TIWI-shot40_1,Images/video-storytelling-videocamping_1OzbiB1TIWI-shot40_1/img121.jpg,Images/video-storytelling-videocamping_1OzbiB1TIWI-shot40_1/img123.jpg,Images/video-storytelling-videocamping_1OzbiB1TIWI-shot40_1/img126.jpg,Images/video-storytelling-videocamping_1OzbiB1TIWI-shot40_1/img127.jpg,Images/video-storytelling-videocamping_1OzbiB1TIWI-shot40_1/img129.jpg,Images/video-storytelling-videocamping_1OzbiB1TIWI-shot40_1/img130.jpg,Images/video-storytelling-videocamping_1OzbiB1TIWI-shot40_1/img133.jpg,Images/video-storytelling-videocamping_1OzbiB1TIWI-shot40_1/img135.jpg,Images/video-storytelling-videocamping_1OzbiB1TIWI-shot40_1/img139.jpg,Images/video-storytelling-videocamping_1OzbiB1TIWI-shot40_1/img147.jpg,1949,27,0,2022-06-15_20h29.43.567,annotation,2021.2.3,Win32,59.94125757,,
,,,,,,,,,,,,,,,,,0.476903064,0.170670726,1,0,0,image_4,0,1,1,56,1,1277,A person cutting up a tomato on a cutting board.,M,0,2,YouCook-video0034-shot16_3,Images/YouCook-video0034-shot16_3/img368.jpg,Images/YouCook-video0034-shot16_3/img371.jpg,Images/YouCook-video0034-shot16_3/img378.jpg,Images/YouCook-video0034-shot16_3/img404.jpg,Images/YouCook-video0034-shot16_3/img424.jpg,Images/YouCook-video0034-shot16_3/img443.jpg,Images/YouCook-video0034-shot16_3/img446.jpg,Images/YouCook-video0034-shot16_3/img450.jpg,Images/YouCook-video0034-shot16_3/img454.jpg,Images/YouCook-video0034-shot16_3/img456.jpg,493,27,0,2022-06-15_20h29.43.567,annotation,2021.2.3,Win32,59.94125757,,
,,,,,,,,,,,,,,,,,-0.014315608,-0.157733628,1,0,0,image_7,0,2,2,27,1,1444,A dog that is standing in the middle of a field.,M,0,3,MSR-VTT-videoTestVideo_video8655-shot1_0,Images/MSR-VTT-videoTestVideo_video8655-shot1_0/img0.jpg,Images/MSR-VTT-videoTestVideo_video8655-shot1_0/img4.jpg,Images/MSR-VTT-videoTestVideo_video8655-shot1_0/img7.jpg,Images/MSR-VTT-videoTestVideo_video8655-shot1_0/img8.jpg,Images/MSR-VTT-videoTestVideo_video8655-shot1_0/img12.jpg,Images/MSR-VTT-videoTestVideo_video8655-shot1_0/img14.jpg,Images/MSR-VTT-videoTestVideo_video8655-shot1_0/img15.jpg,Images/MSR-VTT-videoTestVideo_video8655-shot1_0/img17.jpg,Images/MSR-VTT-videoTestVideo_video8655-shot1_0/img19.jpg,Images/MSR-VTT-videoTestVideo_video8655-shot1_0/img20.jpg,1332,27,0,2022-06-15_20h29.43.567,annotation,2021.2.3,Win32,59.94125757,,
,,,,,,,,,,,,,,,,,0.015287111,0.129967081,1,0,0,image_2,0,3,3,58,1,0,Pair of black gloves,H,,2,open-images-510_3a241cb30d6e5319,Checks/check1/open-images-225_1442c0d0ef23d58bimg3.jpg,Checks/check1/open-images-2759_3a42708fe77398b7img8.jpg,Checks/check1/open-images-510_3a241cb30d6e5319img2.jpg,Checks/check1/open-images-2209_02c98146fb93ff17img1.jpg,Checks/check1/open-images-1553_0f128317e56a9d2fimg9.jpg,Checks/check1/open-images-2666_044d7c6d11e6b493img8.jpg,Checks/check1/open-images-2880_159294646083f545img4.jpg,Checks/check1/open-images-609_2dc0baa993a2bd25img5.jpg,Checks/check1/open-images-1854_2b15616b4f1080e7img2.jpg,Checks/check1/open-images-1435_1b0ce31951048765img8.jpg,,,1,2022-06-15_20h29.43.567,annotation,2021.2.3,Win32,59.94125757,,
,,,,,,,,,,,,,,,,,0.239157202,0.128116864,1,0,0,image_3,0,4,4,39,1,470,The man furthest to the left wearing a white shit has his leg stretched out while the man farthest to the right is above the black line.,H,0,3,MSR-VTT-videoTestVideo_video7622-shot4_1,Images/MSR-VTT-videoTestVideo_video7622-shot4_1/img39.jpg,Images/MSR-VTT-videoTestVideo_video7622-shot4_1/img43.jpg,Images/MSR-VTT-videoTestVideo_video7622-shot4_1/img54.jpg,Images/MSR-VTT-videoTestVideo_video7622-shot4_1/img60.jpg,Images/MSR-VTT-videoTestVideo_video7622-shot4_1/img61.jpg,Images/MSR-VTT-videoTestVideo_video7622-shot4_1/img66.jpg,Images/MSR-VTT-videoTestVideo_video7622-shot4_1/img71.jpg,Images/MSR-VTT-videoTestVideo_video7622-shot4_1/img80.jpg,Images/MSR-VTT-videoTestVideo_video7622-shot4_1/img82.jpg,Images/MSR-VTT-videoTestVideo_video7622-shot4_1/img87.jpg,427,27,0,2022-06-15_20h29.43.567,annotation,2021.2.3,Win32,59.94125757,,
,,,,,,,,,,,,,,,,,0.261358878,-0.137381675,1,0,0,image_8,0,5,5,15,1,812,The guy is touching the woman's hand with only his right hand.,H,1,8,video-storytelling-videowedding_Bp8t824h5NE-shot65_0,Images/video-storytelling-videowedding_Bp8t824h5NE-shot65_0/img0.jpg,Images/video-storytelling-videowedding_Bp8t824h5NE-shot65_0/img6.jpg,Images/video-storytelling-videowedding_Bp8t824h5NE-shot65_0/img48.jpg,Images/video-storytelling-videowedding_Bp8t824h5NE-shot65_0/img106.jpg,Images/video-storytelling-videowedding_Bp8t824h5NE-shot65_0/img250.jpg,Images/video-storytelling-videowedding_Bp8t824h5NE-shot65_0/img350.jpg,Images/video-storytelling-videowedding_Bp8t824h5NE-shot65_0/img425.jpg,Images/video-storytelling-videowedding_Bp8t824h5NE-shot65_0/img434.jpg,Images/video-storytelling-videowedding_Bp8t824h5NE-shot65_0/img484.jpg,Images/video-storytelling-videowedding_Bp8t824h5NE-shot65_0/img506.jpg,1917,27,0,2022-06-15_20h29.43.567,annotation,2021.2.3,Win32,59.94125757,,
,,,,,,,,,,,,,,,,,0.555535072,0.121641351,1,0,0,image_4,0,6,6,50,1,112,The center figure is in a white player's uniform and has both arms held downward at his sides.,H,0,4,MSR-VTT-videoTestVideo_video8064-shot5_0,Images/MSR-VTT-videoTestVideo_video8064-shot5_0/img0.jpg,Images/MSR-VTT-videoTestVideo_video8064-shot5_0/img3.jpg,Images/MSR-VTT-videoTestVideo_video8064-shot5_0/img10.jpg,Images/MSR-VTT-videoTestVideo_video8064-shot5_0/img26.jpg,Images/MSR-VTT-videoTestVideo_video8064-shot5_0/img31.jpg,Images/MSR-VTT-videoTestVideo_video8064-shot5_0/img34.jpg,Images/MSR-VTT-videoTestVideo_video8064-shot5_0/img37.jpg,Images/MSR-VTT-videoTestVideo_video8064-shot5_0/img39.jpg,Images/MSR-VTT-videoTestVideo_video8064-shot5_0/img41.jpg,Images/MSR-VTT-videoTestVideo_video8064-shot5_0/img43.jpg,289,27,0,2022-06-15_20h29.43.567,annotation,2021.2.3,Win32,59.94125757,,
,,,,,,,,,,,,,,,,,0.517606971,-0.157733628,1,0,0,image_9,0,7,7,36,1,785,You can no longer see any of the man's face on the right.  The person on the far left's body has completely come into view. ,H,0,6,MSR-VTT-videoTestVideo_video9875-shot6_0,Images/MSR-VTT-videoTestVideo_video9875-shot6_0/img0.jpg,Images/MSR-VTT-videoTestVideo_video9875-shot6_0/img4.jpg,Images/MSR-VTT-videoTestVideo_video9875-shot6_0/img9.jpg,Images/MSR-VTT-videoTestVideo_video9875-shot6_0/img11.jpg,Images/MSR-VTT-videoTestVideo_video9875-shot6_0/img16.jpg,Images/MSR-VTT-videoTestVideo_video9875-shot6_0/img26.jpg,Images/MSR-VTT-videoTestVideo_video9875-shot6_0/img32.jpg,Images/MSR-VTT-videoTestVideo_video9875-shot6_0/img40.jpg,Images/MSR-VTT-videoTestVideo_video9875-shot6_0/img44.jpg,Images/MSR-VTT-videoTestVideo_video9875-shot6_0/img57.jpg,1488,27,0,2022-06-15_20h29.43.567,annotation,2021.2.3,Win32,59.94125757,,
,,,,,,,,,,,,,,,,,-0.008765102,0.148468672,1,0,0,image_2,0,8,8,61,1,3,A grey elephant with golden leaves on it. ,H,,2,open-images-1745_0ed62fe71809b2f5,Checks/check4/open-images-2609_3f72daeb23764ecfimg6.jpg,Checks/check4/open-images-1928_60679e2899870e08img1.jpg,Checks/check4/open-images-1745_0ed62fe71809b2f5img2.jpg,Checks/check4/open-images-1811_9ae6351c7f7565edimg0.jpg,Checks/check4/open-images-1721_6f04da11945ea492img3.jpg,Checks/check4/open-images-1907_5f9be3e4ea5e22c7img2.jpg,Checks/check4/open-images-580_0ddffb9c25141999img1.jpg,Checks/check4/open-images-2924_0645dcbcf998fed9img3.jpg,Checks/check4/open-images-869_856ecbcb5faf76e3img8.jpg,Checks/check4/open-images-250_02039517e63a91fbimg1.jpg,,,1,2022-06-15_20h29.43.567,annotation,2021.2.3,Win32,59.94125757,,
,,,,,,,,,,,,,,,,,-0.004139574,0.097589225,1,0,0,image_2,0,9,9,49,1,485,The three women are completely in frame. The glasses of the lady closest are completely white.,H,1,2,video-storytelling-videocamping_1OzbiB1TIWI-shot12_13,Images/video-storytelling-videocamping_1OzbiB1TIWI-shot12_13/img663.jpg,Images/video-storytelling-videocamping_1OzbiB1TIWI-shot12_13/img681.jpg,Images/video-storytelling-videocamping_1OzbiB1TIWI-shot12_13/img691.jpg,Images/video-storytelling-videocamping_1OzbiB1TIWI-shot12_13/img697.jpg,Images/video-storytelling-videocamping_1OzbiB1TIWI-shot12_13/img705.jpg,Images/video-storytelling-videocamping_1OzbiB1TIWI-shot12_13/img707.jpg,Images/video-storytelling-videocamping_1OzbiB1TIWI-shot12_13/img708.jpg,Images/video-storytelling-videocamping_1OzbiB1TIWI-shot12_13/img712.jpg,Images/video-storytelling-videocamping_1OzbiB1TIWI-shot12_13/img713.jpg,Images/video-storytelling-videocamping_1OzbiB1TIWI-shot12_13/img716.jpg,1519,27,0,2022-06-15_20h29.43.567,annotation,2021.2.3,Win32,59.94125757,,
,,,,,,,,,,,,,,,,,-0.241885843,-0.157733628,1,0,0,image_6,0,10,10,21,1,708,The man has his arm high up that his hand can't be seen.,H,0,6,MSR-VTT-videoTestVideo_video8606-shot1_0,Images/MSR-VTT-videoTestVideo_video8606-shot1_0/img0.jpg,Images/MSR-VTT-videoTestVideo_video8606-shot1_0/img4.jpg,Images/MSR-VTT-videoTestVideo_video8606-shot1_0/img12.jpg,Images/MSR-VTT-videoTestVideo_video8606-shot1_0/img29.jpg,Images/MSR-VTT-videoTestVideo_video8606-shot1_0/img34.jpg,Images/MSR-VTT-videoTestVideo_video8606-shot1_0/img42.jpg,Images/MSR-VTT-videoTestVideo_video8606-shot1_0/img52.jpg,Images/MSR-VTT-videoTestVideo_video8606-shot1_0/img54.jpg,Images/MSR-VTT-videoTestVideo_video8606-shot1_0/img62.jpg,Images/MSR-VTT-videoTestVideo_video8606-shot1_0/img68.jpg,1663,27,0,2022-06-15_20h29.43.567,annotation,2021.2.3,Win32,59.94125757,,
,,,,,,,,,,,,,,,,,-0.484257408,0.169745632,1,0,0,image_0,0,11,11,16,1,1309,a couple of hot dogs on a plate on a table.,M,0,3,video-storytelling-videocamping_dBXYM3dQTSo-shot69_5,Images/video-storytelling-videocamping_dBXYM3dQTSo-shot69_5/img256.jpg,Images/video-storytelling-videocamping_dBXYM3dQTSo-shot69_5/img262.jpg,Images/video-storytelling-videocamping_dBXYM3dQTSo-shot69_5/img265.jpg,Images/video-storytelling-videocamping_dBXYM3dQTSo-shot69_5/img269.jpg,Images/video-storytelling-videocamping_dBXYM3dQTSo-shot69_5/img272.jpg,Images/video-storytelling-videocamping_dBXYM3dQTSo-shot69_5/img274.jpg,Images/video-storytelling-videocamping_dBXYM3dQTSo-shot69_5/img278.jpg,Images/video-storytelling-videocamping_dBXYM3dQTSo-shot69_5/img279.jpg,Images/video-storytelling-videocamping_dBXYM3dQTSo-shot69_5/img280.jpg,Images/video-storytelling-videocamping_dBXYM3dQTSo-shot69_5/img282.jpg,2011,27,0,2022-06-15_20h29.43.567,annotation,2021.2.3,Win32,59.94125757,,
,,,,,,,,,,,,,,,,,0.232681369,-0.180860515,1,0,0,image_8,0,12,12,26,1,772,The woman in the light blue dress has her right arm horizontally across her face and both of her eyes are visible.,H,0,8,MSR-VTT-videoTestVideo_video7109-shot1_0,Images/MSR-VTT-videoTestVideo_video7109-shot1_0/img0.jpg,Images/MSR-VTT-videoTestVideo_video7109-shot1_0/img1.jpg,Images/MSR-VTT-videoTestVideo_video7109-shot1_0/img3.jpg,Images/MSR-VTT-videoTestVideo_video7109-shot1_0/img4.jpg,Images/MSR-VTT-videoTestVideo_video7109-shot1_0/img5.jpg,Images/MSR-VTT-videoTestVideo_video7109-shot1_0/img9.jpg,Images/MSR-VTT-videoTestVideo_video7109-shot1_0/img13.jpg,Images/MSR-VTT-videoTestVideo_video7109-shot1_0/img18.jpg,Images/MSR-VTT-videoTestVideo_video7109-shot1_0/img24.jpg,Images/MSR-VTT-videoTestVideo_video7109-shot1_0/img26.jpg,1290,27,0,2022-06-15_20h29.43.567,annotation,2021.2.3,Win32,59.94125757,,
,,,,,,,,,,,,,,,,,0.4528512,-0.167909372,1,0,0,image_9,0,13,13,25,1,1830,A table with a plate of hot dogs on it.,M,0,4,video-storytelling-videocamping_dBXYM3dQTSo-shot69_4,Images/video-storytelling-videocamping_dBXYM3dQTSo-shot69_4/img214.jpg,Images/video-storytelling-videocamping_dBXYM3dQTSo-shot69_4/img221.jpg,Images/video-storytelling-videocamping_dBXYM3dQTSo-shot69_4/img223.jpg,Images/video-storytelling-videocamping_dBXYM3dQTSo-shot69_4/img226.jpg,Images/video-storytelling-videocamping_dBXYM3dQTSo-shot69_4/img235.jpg,Images/video-storytelling-videocamping_dBXYM3dQTSo-shot69_4/img237.jpg,Images/video-storytelling-videocamping_dBXYM3dQTSo-shot69_4/img243.jpg,Images/video-storytelling-videocamping_dBXYM3dQTSo-shot69_4/img246.jpg,Images/video-storytelling-videocamping_dBXYM3dQTSo-shot69_4/img249.jpg,Images/video-storytelling-videocamping_dBXYM3dQTSo-shot69_4/img255.jpg,1374,27,0,2022-06-15_20h29.43.567,annotation,2021.2.3,Win32,59.94125757,,
,,,,,,,,,,,,,,,,,-0.471306178,0.178996456,1,0,0,image_0,0,14,14,20,1,777,The person's right hand holds the spatula flat towards the viewer. Their thumb and index fingers are visible.,H,1,0,YouCook-video0097-shot21_0,Images/YouCook-video0097-shot21_0/img2.jpg,Images/YouCook-video0097-shot21_0/img8.jpg,Images/YouCook-video0097-shot21_0/img10.jpg,Images/YouCook-video0097-shot21_0/img13.jpg,Images/YouCook-video0097-shot21_0/img169.jpg,Images/YouCook-video0097-shot21_0/img173.jpg,Images/YouCook-video0097-shot21_0/img175.jpg,Images/YouCook-video0097-shot21_0/img178.jpg,Images/YouCook-video0097-shot21_0/img180.jpg,Images/YouCook-video0097-shot21_0/img182.jpg,185,27,0,2022-06-15_20h29.43.567,annotation,2021.2.3,Win32,59.94125757,,
,,,,,,,,,,,,,,,,,0.257658851,0.174371044,1,0,0,image_3,0,15,15,55,1,1888,A little boy playing with a bunch of toys.,M,0,4,video-storytelling-videochristmas_5RR_sRzKODA-shot20_14,Images/video-storytelling-videochristmas_5RR_sRzKODA-shot20_14/img685.jpg,Images/video-storytelling-videochristmas_5RR_sRzKODA-shot20_14/img691.jpg,Images/video-storytelling-videochristmas_5RR_sRzKODA-shot20_14/img698.jpg,Images/video-storytelling-videochristmas_5RR_sRzKODA-shot20_14/img708.jpg,Images/video-storytelling-videochristmas_5RR_sRzKODA-shot20_14/img715.jpg,Images/video-storytelling-videochristmas_5RR_sRzKODA-shot20_14/img717.jpg,Images/video-storytelling-videochristmas_5RR_sRzKODA-shot20_14/img719.jpg,Images/video-storytelling-videochristmas_5RR_sRzKODA-shot20_14/img724.jpg,Images/video-storytelling-videochristmas_5RR_sRzKODA-shot20_14/img728.jpg,Images/video-storytelling-videochristmas_5RR_sRzKODA-shot20_14/img733.jpg,667,27,0,2022-06-15_20h29.43.567,annotation,2021.2.3,Win32,59.94125757,,
,,,,,,,,,,,,,,,,,-0.049468602,0.116090874,1,0,0,image_2,0,16,16,3,1,1003,Some men that are on a jet-ski.  You can just see some black text on the boat over the left shoulder of the man in black but you can't read the entire word. ,H,1,2,MSR-VTT-videoTestVideo_video9342-shot1_2,Images/MSR-VTT-videoTestVideo_video9342-shot1_2/img140.jpg,Images/MSR-VTT-videoTestVideo_video9342-shot1_2/img165.jpg,Images/MSR-VTT-videoTestVideo_video9342-shot1_2/img173.jpg,Images/MSR-VTT-videoTestVideo_video9342-shot1_2/img180.jpg,Images/MSR-VTT-videoTestVideo_video9342-shot1_2/img194.jpg,Images/MSR-VTT-videoTestVideo_video9342-shot1_2/img205.jpg,Images/MSR-VTT-videoTestVideo_video9342-shot1_2/img224.jpg,Images/MSR-VTT-videoTestVideo_video9342-shot1_2/img241.jpg,Images/MSR-VTT-videoTestVideo_video9342-shot1_2/img250.jpg,Images/MSR-VTT-videoTestVideo_video9342-shot1_2/img256.jpg,1681,27,0,2022-06-15_20h29.43.567,annotation,2021.2.3,Win32,59.94125757,,
,,,,,,,,,,,,,,,,,-0.177130072,-0.158658548,1,0,0,image_6,0,17,17,42,1,1122,A bunch of hot cakes in a basket on a shelf.,M,0,4,MSR-VTT-videoTestVideo_video7566-shot2_1,Images/MSR-VTT-videoTestVideo_video7566-shot2_1/img87.jpg,Images/MSR-VTT-videoTestVideo_video7566-shot2_1/img96.jpg,Images/MSR-VTT-videoTestVideo_video7566-shot2_1/img104.jpg,Images/MSR-VTT-videoTestVideo_video7566-shot2_1/img106.jpg,Images/MSR-VTT-videoTestVideo_video7566-shot2_1/img109.jpg,Images/MSR-VTT-videoTestVideo_video7566-shot2_1/img112.jpg,Images/MSR-VTT-videoTestVideo_video7566-shot2_1/img116.jpg,Images/MSR-VTT-videoTestVideo_video7566-shot2_1/img118.jpg,Images/MSR-VTT-videoTestVideo_video7566-shot2_1/img121.jpg,Images/MSR-VTT-videoTestVideo_video7566-shot2_1/img126.jpg,933,27,0,2022-06-15_20h29.43.567,annotation,2021.2.3,Win32,59.94125757,,
,,,,,,,,,,,,,,,,,0.278010339,-0.203062656,1,0,0,image_8,0,18,18,33,1,775,"The thumb on the hand holding the towel is right above the brim of the pot. It is not touching the brim, there is a littl espace.",H,0,7,MSR-VTT-videoTestVideo_video9693-shot2_1,Images/MSR-VTT-videoTestVideo_video9693-shot2_1/img68.jpg,Images/MSR-VTT-videoTestVideo_video9693-shot2_1/img85.jpg,Images/MSR-VTT-videoTestVideo_video9693-shot2_1/img117.jpg,Images/MSR-VTT-videoTestVideo_video9693-shot2_1/img121.jpg,Images/MSR-VTT-videoTestVideo_video9693-shot2_1/img128.jpg,Images/MSR-VTT-videoTestVideo_video9693-shot2_1/img132.jpg,Images/MSR-VTT-videoTestVideo_video9693-shot2_1/img134.jpg,Images/MSR-VTT-videoTestVideo_video9693-shot2_1/img152.jpg,Images/MSR-VTT-videoTestVideo_video9693-shot2_1/img155.jpg,Images/MSR-VTT-videoTestVideo_video9693-shot2_1/img158.jpg,1213,27,0,2022-06-15_20h29.43.567,annotation,2021.2.3,Win32,59.94125757,,
,,,,,,,,,,,,,,,,,0.500955161,0.094813972,1,0,0,image_4,0,19,19,31,1,829,A second person is seen on the right side of the image.  You can see one eye and his entire mouth which is open.  The singer on the left is looking down and is pretty blurry. ,H,0,4,MSR-VTT-videoTestVideo_video9519-shot4_1,Images/MSR-VTT-videoTestVideo_video9519-shot4_1/img33.jpg,Images/MSR-VTT-videoTestVideo_video9519-shot4_1/img38.jpg,Images/MSR-VTT-videoTestVideo_video9519-shot4_1/img40.jpg,Images/MSR-VTT-videoTestVideo_video9519-shot4_1/img42.jpg,Images/MSR-VTT-videoTestVideo_video9519-shot4_1/img43.jpg,Images/MSR-VTT-videoTestVideo_video9519-shot4_1/img46.jpg,Images/MSR-VTT-videoTestVideo_video9519-shot4_1/img51.jpg,Images/MSR-VTT-videoTestVideo_video9519-shot4_1/img53.jpg,Images/MSR-VTT-videoTestVideo_video9519-shot4_1/img56.jpg,Images/MSR-VTT-videoTestVideo_video9519-shot4_1/img58.jpg,1339,27,0,2022-06-15_20h29.43.567,annotation,2021.2.3,Win32,59.94125757,,
,,,,,,,,,,,,,,,,,-0.197481909,-0.209538082,1,0,0,image_6,0,20,20,40,1,1178,A little boy is playing with a baseball bat.,M,0,8,video-storytelling-videobirthday__amwPjAcoC8-shot42_1,Images/video-storytelling-videobirthday__amwPjAcoC8-shot42_1/img34.jpg,Images/video-storytelling-videobirthday__amwPjAcoC8-shot42_1/img37.jpg,Images/video-storytelling-videobirthday__amwPjAcoC8-shot42_1/img42.jpg,Images/video-storytelling-videobirthday__amwPjAcoC8-shot42_1/img46.jpg,Images/video-storytelling-videobirthday__amwPjAcoC8-shot42_1/img51.jpg,Images/video-storytelling-videobirthday__amwPjAcoC8-shot42_1/img55.jpg,Images/video-storytelling-videobirthday__amwPjAcoC8-shot42_1/img59.jpg,Images/video-storytelling-videobirthday__amwPjAcoC8-shot42_1/img62.jpg,Images/video-storytelling-videobirthday__amwPjAcoC8-shot42_1/img64.jpg,Images/video-storytelling-videobirthday__amwPjAcoC8-shot42_1/img70.jpg,1161,27,0,2022-06-15_20h29.43.567,annotation,2021.2.3,Win32,59.94125757,,
,,,,,,,,,,,,,,,,,0.51575655,-0.234515448,1,0,0,image_9,0,21,21,18,1,1957,A man standing in a room holding a remote controller.,M,0,8,MSR-VTT-videoTestVideo_video7725-shot2_6,Images/MSR-VTT-videoTestVideo_video7725-shot2_6/img192.jpg,Images/MSR-VTT-videoTestVideo_video7725-shot2_6/img198.jpg,Images/MSR-VTT-videoTestVideo_video7725-shot2_6/img201.jpg,Images/MSR-VTT-videoTestVideo_video7725-shot2_6/img205.jpg,Images/MSR-VTT-videoTestVideo_video7725-shot2_6/img217.jpg,Images/MSR-VTT-videoTestVideo_video7725-shot2_6/img222.jpg,Images/MSR-VTT-videoTestVideo_video7725-shot2_6/img225.jpg,Images/MSR-VTT-videoTestVideo_video7725-shot2_6/img226.jpg,Images/MSR-VTT-videoTestVideo_video7725-shot2_6/img232.jpg,Images/MSR-VTT-videoTestVideo_video7725-shot2_6/img236.jpg,213,27,0,2022-06-15_20h29.43.567,annotation,2021.2.3,Win32,59.94125757,,
,,,,,,,,,,,,,,,,,0.248408026,-0.203987576,1,0,0,image_8,0,22,22,10,1,1091,A child is standing next to a wooden fence.,M,0,8,MSR-VTT-videoTestVideo_video7485-shot2_1,Images/MSR-VTT-videoTestVideo_video7485-shot2_1/img44.jpg,Images/MSR-VTT-videoTestVideo_video7485-shot2_1/img45.jpg,Images/MSR-VTT-videoTestVideo_video7485-shot2_1/img55.jpg,Images/MSR-VTT-videoTestVideo_video7485-shot2_1/img65.jpg,Images/MSR-VTT-videoTestVideo_video7485-shot2_1/img71.jpg,Images/MSR-VTT-videoTestVideo_video7485-shot2_1/img80.jpg,Images/MSR-VTT-videoTestVideo_video7485-shot2_1/img84.jpg,Images/MSR-VTT-videoTestVideo_video7485-shot2_1/img87.jpg,Images/MSR-VTT-videoTestVideo_video7485-shot2_1/img92.jpg,Images/MSR-VTT-videoTestVideo_video7485-shot2_1/img96.jpg,190,27,0,2022-06-15_20h29.43.567,annotation,2021.2.3,Win32,59.94125757,,
,,,,,,,,,,,,,,,,,0.318714013,0.080937735,1,0,0,image_3,0,23,23,48,1,1855,A close up of a person holding a book.,M,0,1,MSR-VTT-videoTestVideo_video7657-shot2_1,Images/MSR-VTT-videoTestVideo_video7657-shot2_1/img55.jpg,Images/MSR-VTT-videoTestVideo_video7657-shot2_1/img64.jpg,Images/MSR-VTT-videoTestVideo_video7657-shot2_1/img78.jpg,Images/MSR-VTT-videoTestVideo_video7657-shot2_1/img82.jpg,Images/MSR-VTT-videoTestVideo_video7657-shot2_1/img84.jpg,Images/MSR-VTT-videoTestVideo_video7657-shot2_1/img90.jpg,Images/MSR-VTT-videoTestVideo_video7657-shot2_1/img96.jpg,Images/MSR-VTT-videoTestVideo_video7657-shot2_1/img98.jpg,Images/MSR-VTT-videoTestVideo_video7657-shot2_1/img102.jpg,Images/MSR-VTT-videoTestVideo_video7657-shot2_1/img109.jpg,1057,27,0,2022-06-15_20h29.43.567,annotation,2021.2.3,Win32,59.94125757,,
,,,,,,,,,,,,,,,,,0.3011374,0.102214637,1,0,0,image_3,0,24,24,29,1,1025,The pink circle that has white text is blocking a good portion of the left hand that is on the table.  The other hand's fingers are still touching the left arm. ,H,0,3,MSR-VTT-videoTestVideo_video9279-shot1_1,Images/MSR-VTT-videoTestVideo_video9279-shot1_1/img47.jpg,Images/MSR-VTT-videoTestVideo_video9279-shot1_1/img49.jpg,Images/MSR-VTT-videoTestVideo_video9279-shot1_1/img54.jpg,Images/MSR-VTT-videoTestVideo_video9279-shot1_1/img63.jpg,Images/MSR-VTT-videoTestVideo_video9279-shot1_1/img72.jpg,Images/MSR-VTT-videoTestVideo_video9279-shot1_1/img146.jpg,Images/MSR-VTT-videoTestVideo_video9279-shot1_1/img154.jpg,Images/MSR-VTT-videoTestVideo_video9279-shot1_1/img155.jpg,Images/MSR-VTT-videoTestVideo_video9279-shot1_1/img157.jpg,Images/MSR-VTT-videoTestVideo_video9279-shot1_1/img159.jpg,995,27,0,2022-06-15_20h29.43.567,annotation,2021.2.3,Win32,59.94125757,,
,,,,,,,,,,,,,,,,,-0.204882545,0.089263407,1,0,0,image_1,0,25,25,44,1,558,There is a small crack in the door and you can see bright sunlight just starting to come in. ,H,0,1,MSR-VTT-videoTestVideo_video8555-shot6_0,Images/MSR-VTT-videoTestVideo_video8555-shot6_0/img0.jpg,Images/MSR-VTT-videoTestVideo_video8555-shot6_0/img5.jpg,Images/MSR-VTT-videoTestVideo_video8555-shot6_0/img12.jpg,Images/MSR-VTT-videoTestVideo_video8555-shot6_0/img17.jpg,Images/MSR-VTT-videoTestVideo_video8555-shot6_0/img20.jpg,Images/MSR-VTT-videoTestVideo_video8555-shot6_0/img23.jpg,Images/MSR-VTT-videoTestVideo_video8555-shot6_0/img39.jpg,Images/MSR-VTT-videoTestVideo_video8555-shot6_0/img45.jpg,Images/MSR-VTT-videoTestVideo_video8555-shot6_0/img50.jpg,Images/MSR-VTT-videoTestVideo_video8555-shot6_0/img57.jpg,820,27,0,2022-06-15_20h29.43.567,annotation,2021.2.3,Win32,59.94125757,,
,,,,,,,,,,,,,,,,,0.252108054,-0.228964825,1,0,0,image_8,0,26,26,57,1,441,The blue objects in the middle of the white tray are pointed slightly to the right of the picture.  There is only a pointer finger pointing straight down at the blue object. ,H,1,8,MSR-VTT-videoTestVideo_video9143-shot1_0,Images/MSR-VTT-videoTestVideo_video9143-shot1_0/img0.jpg,Images/MSR-VTT-videoTestVideo_video9143-shot1_0/img5.jpg,Images/MSR-VTT-videoTestVideo_video9143-shot1_0/img12.jpg,Images/MSR-VTT-videoTestVideo_video9143-shot1_0/img26.jpg,Images/MSR-VTT-videoTestVideo_video9143-shot1_0/img49.jpg,Images/MSR-VTT-videoTestVideo_video9143-shot1_0/img58.jpg,Images/MSR-VTT-videoTestVideo_video9143-shot1_0/img62.jpg,Images/MSR-VTT-videoTestVideo_video9143-shot1_0/img66.jpg,Images/MSR-VTT-videoTestVideo_video9143-shot1_0/img70.jpg,Images/MSR-VTT-videoTestVideo_video9143-shot1_0/img82.jpg,638,27,0,2022-06-15_20h29.43.567,annotation,2021.2.3,Win32,59.94125757,,
,,,,,,,,,,,,,,,,,-0.266863034,-0.178085291,1,0,0,image_6,0,27,27,6,1,701,The top of the red object is right at the top of the picture.  Half of the 2nd letter on the right is seen while the other part is submerged. ,H,0,6,MSR-VTT-videoTestVideo_video7795-shot1_2,Images/MSR-VTT-videoTestVideo_video7795-shot1_2/img259.jpg,Images/MSR-VTT-videoTestVideo_video7795-shot1_2/img264.jpg,Images/MSR-VTT-videoTestVideo_video7795-shot1_2/img267.jpg,Images/MSR-VTT-videoTestVideo_video7795-shot1_2/img283.jpg,Images/MSR-VTT-videoTestVideo_video7795-shot1_2/img288.jpg,Images/MSR-VTT-videoTestVideo_video7795-shot1_2/img302.jpg,Images/MSR-VTT-videoTestVideo_video7795-shot1_2/img306.jpg,Images/MSR-VTT-videoTestVideo_video7795-shot1_2/img313.jpg,Images/MSR-VTT-videoTestVideo_video7795-shot1_2/img327.jpg,Images/MSR-VTT-videoTestVideo_video7795-shot1_2/img331.jpg,239,27,0,2022-06-15_20h29.43.567,annotation,2021.2.3,Win32,59.94125757,,
,,,,,,,,,,,,,,,,,0.576811944,0.125341698,1,0,0,image_4,0,28,28,41,1,380,The white tag in the ear of the animal has just disappeared off the top of the image. ,H,0,3,MSR-VTT-videoTestVideo_video9311-shot1_3,Images/MSR-VTT-videoTestVideo_video9311-shot1_3/img214.jpg,Images/MSR-VTT-videoTestVideo_video9311-shot1_3/img219.jpg,Images/MSR-VTT-videoTestVideo_video9311-shot1_3/img225.jpg,Images/MSR-VTT-videoTestVideo_video9311-shot1_3/img228.jpg,Images/MSR-VTT-videoTestVideo_video9311-shot1_3/img230.jpg,Images/MSR-VTT-videoTestVideo_video9311-shot1_3/img232.jpg,Images/MSR-VTT-videoTestVideo_video9311-shot1_3/img242.jpg,Images/MSR-VTT-videoTestVideo_video9311-shot1_3/img245.jpg,Images/MSR-VTT-videoTestVideo_video9311-shot1_3/img250.jpg,Images/MSR-VTT-videoTestVideo_video9311-shot1_3/img253.jpg,1479,27,0,2022-06-15_20h29.43.567,annotation,2021.2.3,Win32,59.94125757,,
,,,,,,,,,,,,,,,,,0.454701271,0.118866039,1,0,0,image_4,0,29,29,34,1,972,The leftmost piece of chicken is picked up from the white bowl. ,H,0,4,MSR-VTT-videoTestVideo_video8776-shot1_1,Images/MSR-VTT-videoTestVideo_video8776-shot1_1/img167.jpg,Images/MSR-VTT-videoTestVideo_video8776-shot1_1/img186.jpg,Images/MSR-VTT-videoTestVideo_video8776-shot1_1/img191.jpg,Images/MSR-VTT-videoTestVideo_video8776-shot1_1/img194.jpg,Images/MSR-VTT-videoTestVideo_video8776-shot1_1/img218.jpg,Images/MSR-VTT-videoTestVideo_video8776-shot1_1/img250.jpg,Images/MSR-VTT-videoTestVideo_video8776-shot1_1/img270.jpg,Images/MSR-VTT-videoTestVideo_video8776-shot1_1/img289.jpg,Images/MSR-VTT-videoTestVideo_video8776-shot1_1/img316.jpg,Images/MSR-VTT-videoTestVideo_video8776-shot1_1/img328.jpg,1151,27,0,2022-06-15_20h29.43.567,annotation,2021.2.3,Win32,59.94125757,,
,,,,,,,,,,,,,,,,,0.25950869,-0.175310183,1,0,0,image_8,0,30,30,23,1,766,The blue outline on the left of the man is extending past the top of the screen.,H,0,8,MSR-VTT-videoTestVideo_video7541-shot1_1,Images/MSR-VTT-videoTestVideo_video7541-shot1_1/img54.jpg,Images/MSR-VTT-videoTestVideo_video7541-shot1_1/img63.jpg,Images/MSR-VTT-videoTestVideo_video7541-shot1_1/img66.jpg,Images/MSR-VTT-videoTestVideo_video7541-shot1_1/img69.jpg,Images/MSR-VTT-videoTestVideo_video7541-shot1_1/img80.jpg,Images/MSR-VTT-videoTestVideo_video7541-shot1_1/img92.jpg,Images/MSR-VTT-videoTestVideo_video7541-shot1_1/img99.jpg,Images/MSR-VTT-videoTestVideo_video7541-shot1_1/img110.jpg,Images/MSR-VTT-videoTestVideo_video7541-shot1_1/img122.jpg,Images/MSR-VTT-videoTestVideo_video7541-shot1_1/img125.jpg,525,27,0,2022-06-15_20h29.43.567,annotation,2021.2.3,Win32,59.94125757,,
,,,,,,,,,,,,,,,,,-0.479631996,0.144768412,1,0,0,image_0,0,31,31,52,1,1210,A group of people sitting on a bench talking on a cell phone.,M,0,1,video-storytelling-videocamping_1OzbiB1TIWI-shot12_6,Images/video-storytelling-videocamping_1OzbiB1TIWI-shot12_6/img288.jpg,Images/video-storytelling-videocamping_1OzbiB1TIWI-shot12_6/img299.jpg,Images/video-storytelling-videocamping_1OzbiB1TIWI-shot12_6/img304.jpg,Images/video-storytelling-videocamping_1OzbiB1TIWI-shot12_6/img309.jpg,Images/video-storytelling-videocamping_1OzbiB1TIWI-shot12_6/img318.jpg,Images/video-storytelling-videocamping_1OzbiB1TIWI-shot12_6/img323.jpg,Images/video-storytelling-videocamping_1OzbiB1TIWI-shot12_6/img329.jpg,Images/video-storytelling-videocamping_1OzbiB1TIWI-shot12_6/img335.jpg,Images/video-storytelling-videocamping_1OzbiB1TIWI-shot12_6/img345.jpg,Images/video-storytelling-videocamping_1OzbiB1TIWI-shot12_6/img359.jpg,1406,27,0,2022-06-15_20h29.43.567,annotation,2021.2.3,Win32,59.94125757,,
,,,,,,,,,,,,,,,,,-0.512009794,0.141993159,1,0,0,image_0,0,32,32,5,1,1456,A man holding a dog in his arms.,M,0,2,MSR-VTT-videoTestVideo_video9179-shot0_1,Images/MSR-VTT-videoTestVideo_video9179-shot0_1/img50.jpg,Images/MSR-VTT-videoTestVideo_video9179-shot0_1/img53.jpg,Images/MSR-VTT-videoTestVideo_video9179-shot0_1/img57.jpg,Images/MSR-VTT-videoTestVideo_video9179-shot0_1/img64.jpg,Images/MSR-VTT-videoTestVideo_video9179-shot0_1/img67.jpg,Images/MSR-VTT-videoTestVideo_video9179-shot0_1/img70.jpg,Images/MSR-VTT-videoTestVideo_video9179-shot0_1/img71.jpg,Images/MSR-VTT-videoTestVideo_video9179-shot0_1/img75.jpg,Images/MSR-VTT-videoTestVideo_video9179-shot0_1/img79.jpg,Images/MSR-VTT-videoTestVideo_video9179-shot0_1/img82.jpg,49,27,0,2022-06-15_20h29.43.567,annotation,2021.2.3,Win32,59.94125757,,
,,,,,,,,,,,,,,,,,0.272459891,0.124416604,1,0,0,image_3,0,33,33,12,1,193,A second person on the right side of the image has just appeared.  You can see the right side of his face and it cuts off right down the middle of his face. ,H,0,3,MSR-VTT-videoTestVideo_video9519-shot4_1,Images/MSR-VTT-videoTestVideo_video9519-shot4_1/img33.jpg,Images/MSR-VTT-videoTestVideo_video9519-shot4_1/img38.jpg,Images/MSR-VTT-videoTestVideo_video9519-shot4_1/img40.jpg,Images/MSR-VTT-videoTestVideo_video9519-shot4_1/img42.jpg,Images/MSR-VTT-videoTestVideo_video9519-shot4_1/img43.jpg,Images/MSR-VTT-videoTestVideo_video9519-shot4_1/img46.jpg,Images/MSR-VTT-videoTestVideo_video9519-shot4_1/img51.jpg,Images/MSR-VTT-videoTestVideo_video9519-shot4_1/img53.jpg,Images/MSR-VTT-videoTestVideo_video9519-shot4_1/img56.jpg,Images/MSR-VTT-videoTestVideo_video9519-shot4_1/img58.jpg,1954,27,0,2022-06-15_20h29.43.567,annotation,2021.2.3,Win32,59.94125757,,
,,,,,,,,,,,,,,,,,0.575887141,-0.135531487,1,0,0,image_9,0,34,34,46,1,1227,A blurry image of a person riding a skateboard.,M,0,9,video-storytelling-videocamping_1OzbiB1TIWI-shot11_7,Images/video-storytelling-videocamping_1OzbiB1TIWI-shot11_7/img377.jpg,Images/video-storytelling-videocamping_1OzbiB1TIWI-shot11_7/img384.jpg,Images/video-storytelling-videocamping_1OzbiB1TIWI-shot11_7/img385.jpg,Images/video-storytelling-videocamping_1OzbiB1TIWI-shot11_7/img387.jpg,Images/video-storytelling-videocamping_1OzbiB1TIWI-shot11_7/img389.jpg,Images/video-storytelling-videocamping_1OzbiB1TIWI-shot11_7/img391.jpg,Images/video-storytelling-videocamping_1OzbiB1TIWI-shot11_7/img392.jpg,Images/video-storytelling-videocamping_1OzbiB1TIWI-shot11_7/img393.jpg,Images/video-storytelling-videocamping_1OzbiB1TIWI-shot11_7/img396.jpg,Images/video-storytelling-videocamping_1OzbiB1TIWI-shot11_7/img398.jpg,1074,27,0,2022-06-15_20h29.43.567,annotation,2021.2.3,Win32,59.94125757,,
,,,,,,,,,,,,,,,,,-0.52588603,-0.180860515,1,0,0,image_5,0,35,35,59,1,1,The only picture of a hawk.  It is looking to the left.  You see lots of branches and darker blue sky. ,H,,5,open-images-958_686caac9c5b322e7,Checks/check2/open-images-2603_1b5152f01f0093e7img3.jpg,Checks/check2/open-images-1836_069810916ce5d675img8.jpg,Checks/check2/open-images-974_0748fdedc4bf8b7bimg2.jpg,Checks/check2/open-images-617_01fb725fb1aa7b04img6.jpg,Checks/check2/open-images-507_047769e1f977cd97img2.jpg,Checks/check2/open-images-958_686caac9c5b322e7img5.jpg,Checks/check2/open-images-1278_21851d9bf5dc05c9img7.jpg,Checks/check2/open-images-2424_05f04546e01499f2img0.jpg,Checks/check2/open-images-1529_1442b11a10a6aeadimg3.jpg,Checks/check2/open-images-514_2c523ddedc2561d4img1.jpg,,,1,2022-06-15_20h29.43.567,annotation,2021.2.3,Win32,59.94125757,,
,,,,,,,,,,,,,,,,,-0.298315883,0.117015939,1,0,0,image_1,0,36,36,19,1,1387,A group of kids playing basketball on a basketball court.,M,1,5,MSR-VTT-videoTestVideo_video7458-shot2_5,Images/MSR-VTT-videoTestVideo_video7458-shot2_5/img309.jpg,Images/MSR-VTT-videoTestVideo_video7458-shot2_5/img318.jpg,Images/MSR-VTT-videoTestVideo_video7458-shot2_5/img336.jpg,Images/MSR-VTT-videoTestVideo_video7458-shot2_5/img342.jpg,Images/MSR-VTT-videoTestVideo_video7458-shot2_5/img349.jpg,Images/MSR-VTT-videoTestVideo_video7458-shot2_5/img359.jpg,Images/MSR-VTT-videoTestVideo_video7458-shot2_5/img360.jpg,Images/MSR-VTT-videoTestVideo_video7458-shot2_5/img407.jpg,Images/MSR-VTT-videoTestVideo_video7458-shot2_5/img410.jpg,Images/MSR-VTT-videoTestVideo_video7458-shot2_5/img419.jpg,1891,27,0,2022-06-15_20h29.43.567,annotation,2021.2.3,Win32,59.94125757,,
,,,,,,,,,,,,,,,,,0.062466211,0.082787836,1,0,0,image_2,0,37,37,11,1,1892,a close up of a person holding a pair of scissors.,M,0,3,MSR-VTT-videoTestVideo_video9235-shot0_0,Images/MSR-VTT-videoTestVideo_video9235-shot0_0/img0.jpg,Images/MSR-VTT-videoTestVideo_video9235-shot0_0/img4.jpg,Images/MSR-VTT-videoTestVideo_video9235-shot0_0/img7.jpg,Images/MSR-VTT-videoTestVideo_video9235-shot0_0/img9.jpg,Images/MSR-VTT-videoTestVideo_video9235-shot0_0/img11.jpg,Images/MSR-VTT-videoTestVideo_video9235-shot0_0/img15.jpg,Images/MSR-VTT-videoTestVideo_video9235-shot0_0/img19.jpg,Images/MSR-VTT-videoTestVideo_video9235-shot0_0/img22.jpg,Images/MSR-VTT-videoTestVideo_video9235-shot0_0/img29.jpg,Images/MSR-VTT-videoTestVideo_video9235-shot0_0/img40.jpg,1719,27,0,2022-06-15_20h29.43.567,annotation,2021.2.3,Win32,59.94125757,,
,,,,,,,,,,,,,,,,,-0.208582747,0.080937735,1,0,0,image_1,0,38,38,30,1,1215,A man holding a guitar in front of a picture frame.,M,0,9,MSR-VTT-videoTestVideo_video8861-shot0_0,Images/MSR-VTT-videoTestVideo_video8861-shot0_0/img0.jpg,Images/MSR-VTT-videoTestVideo_video8861-shot0_0/img4.jpg,Images/MSR-VTT-videoTestVideo_video8861-shot0_0/img15.jpg,Images/MSR-VTT-videoTestVideo_video8861-shot0_0/img37.jpg,Images/MSR-VTT-videoTestVideo_video8861-shot0_0/img54.jpg,Images/MSR-VTT-videoTestVideo_video8861-shot0_0/img64.jpg,Images/MSR-VTT-videoTestVideo_video8861-shot0_0/img72.jpg,Images/MSR-VTT-videoTestVideo_video8861-shot0_0/img101.jpg,Images/MSR-VTT-videoTestVideo_video8861-shot0_0/img106.jpg,Images/MSR-VTT-videoTestVideo_video8861-shot0_0/img108.jpg,666,27,0,2022-06-15_20h29.43.567,annotation,2021.2.3,Win32,59.94125757,,
,,,,,,,,,,,,,,,,,-0.52588603,0.128116864,1,0,0,image_0,0,39,39,32,1,2074,A person standing on top of a tennis court.,M,0,8,MSR-VTT-videoTestVideo_video8603-shot1_1,Images/MSR-VTT-videoTestVideo_video8603-shot1_1/img141.jpg,Images/MSR-VTT-videoTestVideo_video8603-shot1_1/img149.jpg,Images/MSR-VTT-videoTestVideo_video8603-shot1_1/img153.jpg,Images/MSR-VTT-videoTestVideo_video8603-shot1_1/img155.jpg,Images/MSR-VTT-videoTestVideo_video8603-shot1_1/img161.jpg,Images/MSR-VTT-videoTestVideo_video8603-shot1_1/img166.jpg,Images/MSR-VTT-videoTestVideo_video8603-shot1_1/img171.jpg,Images/MSR-VTT-videoTestVideo_video8603-shot1_1/img173.jpg,Images/MSR-VTT-videoTestVideo_video8603-shot1_1/img175.jpg,Images/MSR-VTT-videoTestVideo_video8603-shot1_1/img178.jpg,871,27,0,2022-06-15_20h29.43.567,annotation,2021.2.3,Win32,59.94125757,,
,,,,,,,,,,,,,,,,,0.2761605,0.146618571,1,0,0,image_3,0,40,40,2,1,653,The blue square on the wall to the upper left is completely visible. Three of the dogs legs are visible.,H,0,2,video-storytelling-videobirthday_fwpYnUDbusw-shot18_5,Images/video-storytelling-videobirthday_fwpYnUDbusw-shot18_5/img262.jpg,Images/video-storytelling-videobirthday_fwpYnUDbusw-shot18_5/img269.jpg,Images/video-storytelling-videobirthday_fwpYnUDbusw-shot18_5/img275.jpg,Images/video-storytelling-videobirthday_fwpYnUDbusw-shot18_5/img279.jpg,Images/video-storytelling-videobirthday_fwpYnUDbusw-shot18_5/img292.jpg,Images/video-storytelling-videobirthday_fwpYnUDbusw-shot18_5/img304.jpg,Images/video-storytelling-videobirthday_fwpYnUDbusw-shot18_5/img307.jpg,Images/video-storytelling-videobirthday_fwpYnUDbusw-shot18_5/img313.jpg,Images/video-storytelling-videobirthday_fwpYnUDbusw-shot18_5/img324.jpg,Images/video-storytelling-videobirthday_fwpYnUDbusw-shot18_5/img327.jpg,247,27,0,2022-06-15_20h29.43.567,annotation,2021.2.3,Win32,59.94125757,,
,,,,,,,,,,,,,,,,,0.03101342,-0.228964825,1,0,0,image_7,0,41,41,22,1,115,The image is just starting to transition to the woman kissing.,H,1,5,MSR-VTT-videoTestVideo_video8589-shot1_0,Images/MSR-VTT-videoTestVideo_video8589-shot1_0/img0.jpg,Images/MSR-VTT-videoTestVideo_video8589-shot1_0/img6.jpg,Images/MSR-VTT-videoTestVideo_video8589-shot1_0/img25.jpg,Images/MSR-VTT-videoTestVideo_video8589-shot1_0/img71.jpg,Images/MSR-VTT-videoTestVideo_video8589-shot1_0/img105.jpg,Images/MSR-VTT-videoTestVideo_video8589-shot1_0/img111.jpg,Images/MSR-VTT-videoTestVideo_video8589-shot1_0/img116.jpg,Images/MSR-VTT-videoTestVideo_video8589-shot1_0/img127.jpg,Images/MSR-VTT-videoTestVideo_video8589-shot1_0/img135.jpg,Images/MSR-VTT-videoTestVideo_video8589-shot1_0/img172.jpg,1383,27,0,2022-06-15_20h29.43.567,annotation,2021.2.3,Win32,59.94125757,,
,,,,,,,,,,,,,,,,,0.509280949,-0.174384973,1,0,0,image_9,0,42,42,24,1,250,All you can see of the person is a pair of shoes at the very top center of the photo. ,H,0,3,MSR-VTT-videoTestVideo_video8574-shot1_0,Images/MSR-VTT-videoTestVideo_video8574-shot1_0/img0.jpg,Images/MSR-VTT-videoTestVideo_video8574-shot1_0/img5.jpg,Images/MSR-VTT-videoTestVideo_video8574-shot1_0/img8.jpg,Images/MSR-VTT-videoTestVideo_video8574-shot1_0/img9.jpg,Images/MSR-VTT-videoTestVideo_video8574-shot1_0/img11.jpg,Images/MSR-VTT-videoTestVideo_video8574-shot1_0/img13.jpg,Images/MSR-VTT-videoTestVideo_video8574-shot1_0/img15.jpg,Images/MSR-VTT-videoTestVideo_video8574-shot1_0/img19.jpg,Images/MSR-VTT-videoTestVideo_video8574-shot1_0/img23.jpg,Images/MSR-VTT-videoTestVideo_video8574-shot1_0/img31.jpg,515,27,0,2022-06-15_20h29.43.567,annotation,2021.2.3,Win32,59.94125757,,
,,,,,,,,,,,,,,,,,0.495404713,0.119791192,1,0,0,image_4,0,43,43,0,1,826,No water is visible and there are no words at the bottom of the screen.,H,0,4,MSR-VTT-videoTestVideo_video8931-shot1_0,Images/MSR-VTT-videoTestVideo_video8931-shot1_0/img22.jpg,Images/MSR-VTT-videoTestVideo_video8931-shot1_0/img38.jpg,Images/MSR-VTT-videoTestVideo_video8931-shot1_0/img64.jpg,Images/MSR-VTT-videoTestVideo_video8931-shot1_0/img117.jpg,Images/MSR-VTT-videoTestVideo_video8931-shot1_0/img130.jpg,Images/MSR-VTT-videoTestVideo_video8931-shot1_0/img223.jpg,Images/MSR-VTT-videoTestVideo_video8931-shot1_0/img247.jpg,Images/MSR-VTT-videoTestVideo_video8931-shot1_0/img249.jpg,Images/MSR-VTT-videoTestVideo_video8931-shot1_0/img263.jpg,Images/MSR-VTT-videoTestVideo_video8931-shot1_0/img275.jpg,1859,27,0,2022-06-15_20h29.43.567,annotation,2021.2.3,Win32,59.94125757,,
,,,,,,,,,,,,,,,,,0.012511771,-0.230815071,1,0,0,image_7,0,44,44,45,1,1190,A woman standing in a room holding a video game controller.,M,0,7,MSR-VTT-videoTestVideo_video8058-shot1_0,Images/MSR-VTT-videoTestVideo_video8058-shot1_0/img0.jpg,Images/MSR-VTT-videoTestVideo_video8058-shot1_0/img18.jpg,Images/MSR-VTT-videoTestVideo_video8058-shot1_0/img33.jpg,Images/MSR-VTT-videoTestVideo_video8058-shot1_0/img37.jpg,Images/MSR-VTT-videoTestVideo_video8058-shot1_0/img73.jpg,Images/MSR-VTT-videoTestVideo_video8058-shot1_0/img103.jpg,Images/MSR-VTT-videoTestVideo_video8058-shot1_0/img153.jpg,Images/MSR-VTT-videoTestVideo_video8058-shot1_0/img188.jpg,Images/MSR-VTT-videoTestVideo_video8058-shot1_0/img191.jpg,Images/MSR-VTT-videoTestVideo_video8058-shot1_0/img195.jpg,550,27,0,2022-06-15_20h29.43.567,annotation,2021.2.3,Win32,59.94125757,,
,,,,,,,,,,,,,,,,,0.241007041,-0.199362164,1,0,0,image_8,0,45,45,43,1,948,There is no spoon.,H,0,8,YouCook-video0008-shot6_0,Images/YouCook-video0008-shot6_0/img0.jpg,Images/YouCook-video0008-shot6_0/img17.jpg,Images/YouCook-video0008-shot6_0/img46.jpg,Images/YouCook-video0008-shot6_0/img64.jpg,Images/YouCook-video0008-shot6_0/img114.jpg,Images/YouCook-video0008-shot6_0/img118.jpg,Images/YouCook-video0008-shot6_0/img143.jpg,Images/YouCook-video0008-shot6_0/img150.jpg,Images/YouCook-video0008-shot6_0/img171.jpg,Images/YouCook-video0008-shot6_0/img251.jpg,1504,27,0,2022-06-15_20h29.43.567,annotation,2021.2.3,Win32,59.94125757,,
,,,,,,,,,,,,,,,,,0.526857795,-0.203987576,1,0,0,image_9,0,46,46,60,1,2,Green type writer with a red tape. ,H,,9,open-images-531_0dd4eb59d465a8be,Checks/check3/open-images-503_1ccd6fa641154ebbimg7.jpg,Checks/check3/open-images-1852_00faf52058ad28b8img4.jpg,Checks/check3/open-images-386_1b2e28d6d994603eimg1.jpg,Checks/check3/open-images-471_1121e9f97c200ac0img8.jpg,Checks/check3/open-images-1886_3db71eaddb618934img8.jpg,Checks/check3/open-images-1696_20a4ebf0c0f76b05img6.jpg,Checks/check3/open-images-2447_128483a48e1552f4img6.jpg,Checks/check3/open-images-2994_9965cbf8aa20bda0img2.jpg,Checks/check3/open-images-1068_03d63613107970b3img6.jpg,Checks/check3/open-images-531_0dd4eb59d465a8beimg9.jpg,,,1,2022-06-15_20h29.43.567,annotation,2021.2.3,Win32,59.94125757,,
,,,,,,,,,,,,,,,,,-0.263162599,0.140143,1,0,0,image_1,0,47,47,62,1,4,A penguin holding a piece of paper with text on it. ,H,,1,open-images-2521_074d6af730ed17a6,Checks/check5/open-images-509_4d8bd994cb8c6eaeimg0.jpg,Checks/check5/open-images-2521_074d6af730ed17a6img1.jpg,Checks/check5/open-images-1365_a00a5fde334ae45aimg4.jpg,Checks/check5/open-images-1602_44092afdeab39e73img6.jpg,Checks/check5/open-images-1032_059f3cdfb85ee0ceimg3.jpg,Checks/check5/open-images-727_25b77fff36adba66img2.jpg,Checks/check5/open-images-2208_0fb92b9978d98575img2.jpg,Checks/check5/open-images-1305_05769e6abb16fdc8img9.jpg,Checks/check5/open-images-2676_052dbf7b4899430bimg1.jpg,Checks/check5/open-images-2569_1e81d79bb796a2dbimg7.jpg,,,1,2022-06-15_20h29.43.567,annotation,2021.2.3,Win32,59.94125757,,
,,,,,,,,,,,,,,,,,-0.450954428,-0.16143383,1,0,0,image_5,0,48,48,14,1,1972,A dog jumping over a chair in a room.,M,1,9,MSR-VTT-videoTestVideo_video7113-shot1_1,Images/MSR-VTT-videoTestVideo_video7113-shot1_1/img58.jpg,Images/MSR-VTT-videoTestVideo_video7113-shot1_1/img72.jpg,Images/MSR-VTT-videoTestVideo_video7113-shot1_1/img76.jpg,Images/MSR-VTT-videoTestVideo_video7113-shot1_1/img81.jpg,Images/MSR-VTT-videoTestVideo_video7113-shot1_1/img89.jpg,Images/MSR-VTT-videoTestVideo_video7113-shot1_1/img93.jpg,Images/MSR-VTT-videoTestVideo_video7113-shot1_1/img96.jpg,Images/MSR-VTT-videoTestVideo_video7113-shot1_1/img102.jpg,Images/MSR-VTT-videoTestVideo_video7113-shot1_1/img116.jpg,Images/MSR-VTT-videoTestVideo_video7113-shot1_1/img128.jpg,162,27,0,2022-06-15_20h29.43.567,annotation,2021.2.3,Win32,59.94125757,,
,,,,,,,,,,,,,,,,,0.236381629,0.070761816,1,0,0,image_3,0,49,49,17,1,31,The woman has mostly straightened posture as she faces the boy in blue with her mouth open,H,0,3,MSR-VTT-videoTestVideo_video8037-shot1_0,Images/MSR-VTT-videoTestVideo_video8037-shot1_0/img1.jpg,Images/MSR-VTT-videoTestVideo_video8037-shot1_0/img5.jpg,Images/MSR-VTT-videoTestVideo_video8037-shot1_0/img10.jpg,Images/MSR-VTT-videoTestVideo_video8037-shot1_0/img13.jpg,Images/MSR-VTT-videoTestVideo_video8037-shot1_0/img22.jpg,Images/MSR-VTT-videoTestVideo_video8037-shot1_0/img27.jpg,Images/MSR-VTT-videoTestVideo_video8037-shot1_0/img29.jpg,Images/MSR-VTT-videoTestVideo_video8037-shot1_0/img30.jpg,Images/MSR-VTT-videoTestVideo_video8037-shot1_0/img31.jpg,Images/MSR-VTT-videoTestVideo_video8037-shot1_0/img34.jpg,1903,27,0,2022-06-15_20h29.43.567,annotation,2021.2.3,Win32,59.94125757,,
,,,,,,,,,,,,,,,,,0.250257866,-0.168834466,1,0,0,image_8,0,50,50,7,1,1379,A woman standing in front of a table with a plate of food.,M,1,9,video-storytelling-videobirthday_fwpYnUDbusw-shot8_3,Images/video-storytelling-videobirthday_fwpYnUDbusw-shot8_3/img170.jpg,Images/video-storytelling-videobirthday_fwpYnUDbusw-shot8_3/img175.jpg,Images/video-storytelling-videobirthday_fwpYnUDbusw-shot8_3/img180.jpg,Images/video-storytelling-videobirthday_fwpYnUDbusw-shot8_3/img188.jpg,Images/video-storytelling-videobirthday_fwpYnUDbusw-shot8_3/img201.jpg,Images/video-storytelling-videobirthday_fwpYnUDbusw-shot8_3/img206.jpg,Images/video-storytelling-videobirthday_fwpYnUDbusw-shot8_3/img217.jpg,Images/video-storytelling-videobirthday_fwpYnUDbusw-shot8_3/img229.jpg,Images/video-storytelling-videobirthday_fwpYnUDbusw-shot8_3/img234.jpg,Images/video-storytelling-videobirthday_fwpYnUDbusw-shot8_3/img239.jpg,1613,27,0,2022-06-15_20h29.43.567,annotation,2021.2.3,Win32,59.94125757,,
,,,,,,,,,,,,,,,,,-0.215058463,-0.226189659,1,0,0,image_6,0,51,51,35,1,495,Both her feet are visible. Her left foot is behind her and just coming off the ground.,H,1,6,MSR-VTT-videoTestVideo_video7522-shot4_0,Images/MSR-VTT-videoTestVideo_video7522-shot4_0/img0.jpg,Images/MSR-VTT-videoTestVideo_video7522-shot4_0/img5.jpg,Images/MSR-VTT-videoTestVideo_video7522-shot4_0/img10.jpg,Images/MSR-VTT-videoTestVideo_video7522-shot4_0/img11.jpg,Images/MSR-VTT-videoTestVideo_video7522-shot4_0/img15.jpg,Images/MSR-VTT-videoTestVideo_video7522-shot4_0/img16.jpg,Images/MSR-VTT-videoTestVideo_video7522-shot4_0/img18.jpg,Images/MSR-VTT-videoTestVideo_video7522-shot4_0/img21.jpg,Images/MSR-VTT-videoTestVideo_video7522-shot4_0/img25.jpg,Images/MSR-VTT-videoTestVideo_video7522-shot4_0/img33.jpg,577,27,0,2022-06-15_20h29.43.567,annotation,2021.2.3,Win32,59.94125757,,
,,,,,,,,,,,,,,,,,0.245632453,0.0753872,1,0,0,image_3,0,52,52,37,1,1101,A couple of people standing on top of a basketball court.,M,0,3,MSR-VTT-videoTestVideo_video8715-shot0_0,Images/MSR-VTT-videoTestVideo_video8715-shot0_0/img0.jpg,Images/MSR-VTT-videoTestVideo_video8715-shot0_0/img7.jpg,Images/MSR-VTT-videoTestVideo_video8715-shot0_0/img15.jpg,Images/MSR-VTT-videoTestVideo_video8715-shot0_0/img19.jpg,Images/MSR-VTT-videoTestVideo_video8715-shot0_0/img28.jpg,Images/MSR-VTT-videoTestVideo_video8715-shot0_0/img33.jpg,Images/MSR-VTT-videoTestVideo_video8715-shot0_0/img35.jpg,Images/MSR-VTT-videoTestVideo_video8715-shot0_0/img39.jpg,Images/MSR-VTT-videoTestVideo_video8715-shot0_0/img47.jpg,Images/MSR-VTT-videoTestVideo_video8715-shot0_0/img50.jpg,891,27,0,2022-06-15_20h29.43.567,annotation,2021.2.3,Win32,59.94125757,,
,,,,,,,,,,,,,,,,,0.257658851,0.128116864,1,0,0,image_3,0,53,53,9,1,2072,A person holding a bag on top of a plastic bag.,M,0,3,video-storytelling-videocamping_EytINruY3-U-shot42_0,Images/video-storytelling-videocamping_EytINruY3-U-shot42_0/img0.jpg,Images/video-storytelling-videocamping_EytINruY3-U-shot42_0/img82.jpg,Images/video-storytelling-videocamping_EytINruY3-U-shot42_0/img123.jpg,Images/video-storytelling-videocamping_EytINruY3-U-shot42_0/img129.jpg,Images/video-storytelling-videocamping_EytINruY3-U-shot42_0/img134.jpg,Images/video-storytelling-videocamping_EytINruY3-U-shot42_0/img165.jpg,Images/video-storytelling-videocamping_EytINruY3-U-shot42_0/img181.jpg,Images/video-storytelling-videocamping_EytINruY3-U-shot42_0/img194.jpg,Images/video-storytelling-videocamping_EytINruY3-U-shot42_0/img211.jpg,Images/video-storytelling-videocamping_EytINruY3-U-shot42_0/img221.jpg,1743,27,0,2022-06-15_20h29.43.567,annotation,2021.2.3,Win32,59.94125757,,
,,,,,,,,,,,,,,,,,0.296511988,0.064286187,1,0,0,image_3,0,54,54,54,1,491,A low shot of a person playing guitar.  His legs are roughly even with each other and the left leg is slightly bent. ,H,0,0,MSR-VTT-videoTestVideo_video7960-shot0_2,Images/MSR-VTT-videoTestVideo_video7960-shot0_2/img80.jpg,Images/MSR-VTT-videoTestVideo_video7960-shot0_2/img81.jpg,Images/MSR-VTT-videoTestVideo_video7960-shot0_2/img83.jpg,Images/MSR-VTT-videoTestVideo_video7960-shot0_2/img86.jpg,Images/MSR-VTT-videoTestVideo_video7960-shot0_2/img91.jpg,Images/MSR-VTT-videoTestVideo_video7960-shot0_2/img92.jpg,Images/MSR-VTT-videoTestVideo_video7960-shot0_2/img94.jpg,Images/MSR-VTT-videoTestVideo_video7960-shot0_2/img96.jpg,Images/MSR-VTT-videoTestVideo_video7960-shot0_2/img97.jpg,Images/MSR-VTT-videoTestVideo_video7960-shot0_2/img98.jpg,1515,27,0,2022-06-15_20h29.43.567,annotation,2021.2.3,Win32,59.94125757,,
,,,,,,,,,,,,,,,,,0.533333046,0.092038718,1,0,0,image_4,0,55,55,38,1,1239,A bride and groom getting married at a wedding.,M,1,7,video-storytelling-videowedding_Bp8t824h5NE-shot69_1,Images/video-storytelling-videowedding_Bp8t824h5NE-shot69_1/img227.jpg,Images/video-storytelling-videowedding_Bp8t824h5NE-shot69_1/img250.jpg,Images/video-storytelling-videowedding_Bp8t824h5NE-shot69_1/img275.jpg,Images/video-storytelling-videowedding_Bp8t824h5NE-shot69_1/img323.jpg,Images/video-storytelling-videowedding_Bp8t824h5NE-shot69_1/img428.jpg,Images/video-storytelling-videowedding_Bp8t824h5NE-shot69_1/img477.jpg,Images/video-storytelling-videowedding_Bp8t824h5NE-shot69_1/img492.jpg,Images/video-storytelling-videowedding_Bp8t824h5NE-shot69_1/img540.jpg,Images/video-storytelling-videowedding_Bp8t824h5NE-shot69_1/img565.jpg,Images/video-storytelling-videowedding_Bp8t824h5NE-shot69_1/img602.jpg,1485,27,0,2022-06-15_20h29.43.567,annotation,2021.2.3,Win32,59.94125757,,
,,,,,,,,,,,,,,,,,0.510205985,0.095739066,1,0,0,image_4,0,56,56,47,1,1798,A couple of people standing in front of a television.,M,0,2,MSR-VTT-videoTestVideo_video7621-shot0_0,Images/MSR-VTT-videoTestVideo_video7621-shot0_0/img0.jpg,Images/MSR-VTT-videoTestVideo_video7621-shot0_0/img5.jpg,Images/MSR-VTT-videoTestVideo_video7621-shot0_0/img14.jpg,Images/MSR-VTT-videoTestVideo_video7621-shot0_0/img20.jpg,Images/MSR-VTT-videoTestVideo_video7621-shot0_0/img22.jpg,Images/MSR-VTT-videoTestVideo_video7621-shot0_0/img29.jpg,Images/MSR-VTT-videoTestVideo_video7621-shot0_0/img36.jpg,Images/MSR-VTT-videoTestVideo_video7621-shot0_0/img40.jpg,Images/MSR-VTT-videoTestVideo_video7621-shot0_0/img44.jpg,Images/MSR-VTT-videoTestVideo_video7621-shot0_0/img49.jpg,1124,27,0,2022-06-15_20h29.43.567,annotation,2021.2.3,Win32,59.94125757,,
,,,,,,,,,,,,,,,,,0.457476612,0.126266763,1,0,0,image_4,0,57,57,1,1,1572,A woman is holding a piece of paper in her hand.,M,0,5,MSR-VTT-videoTestVideo_video7954-shot1_0,Images/MSR-VTT-videoTestVideo_video7954-shot1_0/img0.jpg,Images/MSR-VTT-videoTestVideo_video7954-shot1_0/img11.jpg,Images/MSR-VTT-videoTestVideo_video7954-shot1_0/img42.jpg,Images/MSR-VTT-videoTestVideo_video7954-shot1_0/img47.jpg,Images/MSR-VTT-videoTestVideo_video7954-shot1_0/img69.jpg,Images/MSR-VTT-videoTestVideo_video7954-shot1_0/img112.jpg,Images/MSR-VTT-videoTestVideo_video7954-shot1_0/img141.jpg,Images/MSR-VTT-videoTestVideo_video7954-shot1_0/img158.jpg,Images/MSR-VTT-videoTestVideo_video7954-shot1_0/img163.jpg,Images/MSR-VTT-videoTestVideo_video7954-shot1_0/img182.jpg,126,27,0,2022-06-15_20h29.43.567,annotation,2021.2.3,Win32,59.94125757,,
,,,,,,,,,,,,,,,,,0.049515069,-0.172534785,1,0,0,image_7,0,58,58,4,1,93,The Beast hands are around the lady's shoulder and almost touching each other.,H,0,7,MSR-VTT-videoTestVideo_video8781-shot0_1,Images/MSR-VTT-videoTestVideo_video8781-shot0_1/img133.jpg,Images/MSR-VTT-videoTestVideo_video8781-shot0_1/img155.jpg,Images/MSR-VTT-videoTestVideo_video8781-shot0_1/img202.jpg,Images/MSR-VTT-videoTestVideo_video8781-shot0_1/img209.jpg,Images/MSR-VTT-videoTestVideo_video8781-shot0_1/img247.jpg,Images/MSR-VTT-videoTestVideo_video8781-shot0_1/img256.jpg,Images/MSR-VTT-videoTestVideo_video8781-shot0_1/img257.jpg,Images/MSR-VTT-videoTestVideo_video8781-shot0_1/img263.jpg,Images/MSR-VTT-videoTestVideo_video8781-shot0_1/img269.jpg,Images/MSR-VTT-videoTestVideo_video8781-shot0_1/img299.jpg,684,27,0,2022-06-15_20h29.43.567,annotation,2021.2.3,Win32,59.94125757,,
,,,,,,,,,,,,,,,,,0.52593241,0.090188559,1,0,0,image_4,0,59,59,51,1,667,"Man is looking up to the left, right hand fingers are at the palm of left hand like he is about to clap",H,0,4,MSR-VTT-videoTestVideo_video8321-shot0_1,Images/MSR-VTT-videoTestVideo_video8321-shot0_1/img238.jpg,Images/MSR-VTT-videoTestVideo_video8321-shot0_1/img249.jpg,Images/MSR-VTT-videoTestVideo_video8321-shot0_1/img256.jpg,Images/MSR-VTT-videoTestVideo_video8321-shot0_1/img263.jpg,Images/MSR-VTT-videoTestVideo_video8321-shot0_1/img268.jpg,Images/MSR-VTT-videoTestVideo_video8321-shot0_1/img286.jpg,Images/MSR-VTT-videoTestVideo_video8321-shot0_1/img289.jpg,Images/MSR-VTT-videoTestVideo_video8321-shot0_1/img297.jpg,Images/MSR-VTT-videoTestVideo_video8321-shot0_1/img311.jpg,Images/MSR-VTT-videoTestVideo_video8321-shot0_1/img333.jpg,755,27,0,2022-06-15_20h29.43.567,annotation,2021.2.3,Win32,59.94125757,,
,,,,,,,,,,,,,,,,,-0.018015926,-0.178085291,1,0,0,image_7,0,60,60,53,1,600,The pencil is pointed at the girl's eye,H,0,7,MSR-VTT-videoTestVideo_video7996-shot2_0,Images/MSR-VTT-videoTestVideo_video7996-shot2_0/img0.jpg,Images/MSR-VTT-videoTestVideo_video7996-shot2_0/img2.jpg,Images/MSR-VTT-videoTestVideo_video7996-shot2_0/img6.jpg,Images/MSR-VTT-videoTestVideo_video7996-shot2_0/img10.jpg,Images/MSR-VTT-videoTestVideo_video7996-shot2_0/img16.jpg,Images/MSR-VTT-videoTestVideo_video7996-shot2_0/img22.jpg,Images/MSR-VTT-videoTestVideo_video7996-shot2_0/img49.jpg,Images/MSR-VTT-videoTestVideo_video7996-shot2_0/img56.jpg,Images/MSR-VTT-videoTestVideo_video7996-shot2_0/img89.jpg,Images/MSR-VTT-videoTestVideo_video7996-shot2_0/img101.jpg,355,27,0,2022-06-15_20h29.43.567,annotation,2021.2.3,Win32,59.94125757,,
,,,,,,,,,,,,,,,,,-0.417651478,0.067986592,1,0,0,image_0,0,61,61,8,1,909,"There are 2 yellow balls in the water, one at the bottom left and another near the.paddles of the canoers are facing straightt corner and the other near the canoe. The  up with the bottom of their paddles in the water",H,0,1,MSR-VTT-videoTestVideo_video8079-shot1_2,Images/MSR-VTT-videoTestVideo_video8079-shot1_2/img165.jpg,Images/MSR-VTT-videoTestVideo_video8079-shot1_2/img167.jpg,Images/MSR-VTT-videoTestVideo_video8079-shot1_2/img174.jpg,Images/MSR-VTT-videoTestVideo_video8079-shot1_2/img175.jpg,Images/MSR-VTT-videoTestVideo_video8079-shot1_2/img179.jpg,Images/MSR-VTT-videoTestVideo_video8079-shot1_2/img189.jpg,Images/MSR-VTT-videoTestVideo_video8079-shot1_2/img201.jpg,Images/MSR-VTT-videoTestVideo_video8079-shot1_2/img208.jpg,Images/MSR-VTT-videoTestVideo_video8079-shot1_2/img216.jpg,Images/MSR-VTT-videoTestVideo_video8079-shot1_2/img217.jpg,1783,27,0,2022-06-15_20h29.43.567,annotation,2021.2.3,Win32,59.94125757,,
,,,,,,,,,,,,,,,,,0.030088326,0.103139644,1,0,0,image_2,0,62,62,28,1,86,The person is showing the grilled side of the bagel to the camera.  The bagel is completely in the sun. ,H,1,2,video-storytelling-videocamping_dBXYM3dQTSo-shot69_0,Images/video-storytelling-videocamping_dBXYM3dQTSo-shot69_0/img0.jpg,Images/video-storytelling-videocamping_dBXYM3dQTSo-shot69_0/img15.jpg,Images/video-storytelling-videocamping_dBXYM3dQTSo-shot69_0/img29.jpg,Images/video-storytelling-videocamping_dBXYM3dQTSo-shot69_0/img55.jpg,Images/video-storytelling-videocamping_dBXYM3dQTSo-shot69_0/img58.jpg,Images/video-storytelling-videocamping_dBXYM3dQTSo-shot69_0/img63.jpg,Images/video-storytelling-videocamping_dBXYM3dQTSo-shot69_0/img68.jpg,Images/video-storytelling-videocamping_dBXYM3dQTSo-shot69_0/img71.jpg,Images/video-storytelling-videocamping_dBXYM3dQTSo-shot69_0/img86.jpg,Images/video-storytelling-videocamping_dBXYM3dQTSo-shot69_0/img89.jpg,920,27,0,2022-06-15_20h29.43.567,annotation,2021.2.3,Win32,59.94125757,,
,,,,,,,,,,,,,,,,,,,,,,,,,,,,,,,,,,,,,,,,,,,,,,,2022-06-15_20h29.43.567,annotation,2021.2.3,Win32,59.94125757,space,135.8082
