mturk,key_resp_2.keys,key_resp_2.rt,key_resp_3.keys,key_resp_3.rt,mouse_2.x,mouse_2.y,mouse_2.leftButton,mouse_2.midButton,mouse_2.rightButton,mouse_2.clicked_name,key_resp_5.keys,key_resp_5.rt,key_resp.keys,key_resp.rt,key_resp_6.keys,key_resp_6.rt,mouse.x,mouse.y,mouse.leftButton,mouse.midButton,mouse.rightButton,mouse.clicked_name,trials.thisRepN,trials.thisTrialN,trials.thisN,trials.thisIndex,trials.ran,N,caption,class_caption,model_guessed,target_idx,image_set,img1,img2,img3,img4,img5,img6,img7,img8,img9,img10,Q_id,block,is_check,date,expName,psychopyVersion,OS,frameRate,key_resp_7.keys,key_resp_7.rt
1924065,space,12.0939,space,12.398,0.248697917,0.09375,1,0,0,ex4,space,13.2273,space,18.1864,space,3.6725,0.459635417,0.12109375,1,0,0,image_4,0,0,0,18,1,103,The middle girl is looking at the camera with a shock face. Only the top row of teeth are seen.,H,0,4,video-storytelling-videobirthday_fwpYnUDbusw-shot8_0,Images/video-storytelling-videobirthday_fwpYnUDbusw-shot8_0/img0.jpg,Images/video-storytelling-videobirthday_fwpYnUDbusw-shot8_0/img3.jpg,Images/video-storytelling-videobirthday_fwpYnUDbusw-shot8_0/img14.jpg,Images/video-storytelling-videobirthday_fwpYnUDbusw-shot8_0/img38.jpg,Images/video-storytelling-videobirthday_fwpYnUDbusw-shot8_0/img42.jpg,Images/video-storytelling-videobirthday_fwpYnUDbusw-shot8_0/img54.jpg,Images/video-storytelling-videobirthday_fwpYnUDbusw-shot8_0/img61.jpg,Images/video-storytelling-videobirthday_fwpYnUDbusw-shot8_0/img67.jpg,Images/video-storytelling-videobirthday_fwpYnUDbusw-shot8_0/img72.jpg,Images/video-storytelling-videobirthday_fwpYnUDbusw-shot8_0/img79.jpg,41,24,0,2022-06-15_17h28.55.655,annotation,2021.2.3,Win32,60.0024001,,
,,,,,,,,,,,,,,,,,-0.239583333,-0.12109375,1,0,0,image_6,0,1,1,36,1,1384,Two men sitting in front of a television set.,M,0,6,MSR-VTT-videoTestVideo_video8633-shot1_0,Images/MSR-VTT-videoTestVideo_video8633-shot1_0/img0.jpg,Images/MSR-VTT-videoTestVideo_video8633-shot1_0/img3.jpg,Images/MSR-VTT-videoTestVideo_video8633-shot1_0/img6.jpg,Images/MSR-VTT-videoTestVideo_video8633-shot1_0/img7.jpg,Images/MSR-VTT-videoTestVideo_video8633-shot1_0/img8.jpg,Images/MSR-VTT-videoTestVideo_video8633-shot1_0/img9.jpg,Images/MSR-VTT-videoTestVideo_video8633-shot1_0/img14.jpg,Images/MSR-VTT-videoTestVideo_video8633-shot1_0/img27.jpg,Images/MSR-VTT-videoTestVideo_video8633-shot1_0/img66.jpg,Images/MSR-VTT-videoTestVideo_video8633-shot1_0/img94.jpg,431,24,0,2022-06-15_17h28.55.655,annotation,2021.2.3,Win32,60.0024001,,
,,,,,,,,,,,,,,,,,0.466145833,0.16796875,1,0,0,image_4,0,2,2,17,1,1434,A couple of people standing in front of a car.,M,0,2,MSR-VTT-videoTestVideo_video7692-shot2_1,Images/MSR-VTT-videoTestVideo_video7692-shot2_1/img188.jpg,Images/MSR-VTT-videoTestVideo_video7692-shot2_1/img199.jpg,Images/MSR-VTT-videoTestVideo_video7692-shot2_1/img212.jpg,Images/MSR-VTT-videoTestVideo_video7692-shot2_1/img220.jpg,Images/MSR-VTT-videoTestVideo_video7692-shot2_1/img228.jpg,Images/MSR-VTT-videoTestVideo_video7692-shot2_1/img234.jpg,Images/MSR-VTT-videoTestVideo_video7692-shot2_1/img239.jpg,Images/MSR-VTT-videoTestVideo_video7692-shot2_1/img250.jpg,Images/MSR-VTT-videoTestVideo_video7692-shot2_1/img260.jpg,Images/MSR-VTT-videoTestVideo_video7692-shot2_1/img310.jpg,1270,24,0,2022-06-15_17h28.55.655,annotation,2021.2.3,Win32,60.0024001,,
,,,,,,,,,,,,,,,,,0.479166667,-0.173177083,1,0,0,image_9,0,3,3,54,1,917,"The woman's eyes are closed, her mouth is open showing top teeth and her eyebrows are high.",H,0,9,MSR-VTT-videoTestVideo_video9412-shot1_0,Images/MSR-VTT-videoTestVideo_video9412-shot1_0/img0.jpg,Images/MSR-VTT-videoTestVideo_video9412-shot1_0/img18.jpg,Images/MSR-VTT-videoTestVideo_video9412-shot1_0/img72.jpg,Images/MSR-VTT-videoTestVideo_video9412-shot1_0/img86.jpg,Images/MSR-VTT-videoTestVideo_video9412-shot1_0/img93.jpg,Images/MSR-VTT-videoTestVideo_video9412-shot1_0/img95.jpg,Images/MSR-VTT-videoTestVideo_video9412-shot1_0/img98.jpg,Images/MSR-VTT-videoTestVideo_video9412-shot1_0/img99.jpg,Images/MSR-VTT-videoTestVideo_video9412-shot1_0/img118.jpg,Images/MSR-VTT-videoTestVideo_video9412-shot1_0/img130.jpg,1715,24,0,2022-06-15_17h28.55.655,annotation,2021.2.3,Win32,60.0024001,,
,,,,,,,,,,,,,,,,,0.029947917,0.095052083,1,0,0,image_2,0,4,4,7,1,235,The girl is sitting down and facing the left. Left arm is on the table and only the fingers of the right hand are on the table.,H,0,1,MSR-VTT-videoTestVideo_video8399-shot3_0,Images/MSR-VTT-videoTestVideo_video8399-shot3_0/img0.jpg,Images/MSR-VTT-videoTestVideo_video8399-shot3_0/img7.jpg,Images/MSR-VTT-videoTestVideo_video8399-shot3_0/img23.jpg,Images/MSR-VTT-videoTestVideo_video8399-shot3_0/img29.jpg,Images/MSR-VTT-videoTestVideo_video8399-shot3_0/img32.jpg,Images/MSR-VTT-videoTestVideo_video8399-shot3_0/img35.jpg,Images/MSR-VTT-videoTestVideo_video8399-shot3_0/img38.jpg,Images/MSR-VTT-videoTestVideo_video8399-shot3_0/img41.jpg,Images/MSR-VTT-videoTestVideo_video8399-shot3_0/img44.jpg,Images/MSR-VTT-videoTestVideo_video8399-shot3_0/img46.jpg,1174,24,0,2022-06-15_17h28.55.655,annotation,2021.2.3,Win32,60.0024001,,
,,,,,,,,,,,,,,,,,0.43359375,0.147135417,1,0,0,image_4,0,5,5,4,1,908,Top left text box has a black background with full visible words.,H,0,5,YouCook-video0008-shot10_1,Images/YouCook-video0008-shot10_1/img35.jpg,Images/YouCook-video0008-shot10_1/img40.jpg,Images/YouCook-video0008-shot10_1/img42.jpg,Images/YouCook-video0008-shot10_1/img46.jpg,Images/YouCook-video0008-shot10_1/img49.jpg,Images/YouCook-video0008-shot10_1/img64.jpg,Images/YouCook-video0008-shot10_1/img93.jpg,Images/YouCook-video0008-shot10_1/img96.jpg,Images/YouCook-video0008-shot10_1/img100.jpg,Images/YouCook-video0008-shot10_1/img108.jpg,524,24,0,2022-06-15_17h28.55.655,annotation,2021.2.3,Win32,60.0024001,,
,,,,,,,,,,,,,,,,,-0.467447917,-0.157552083,1,0,0,image_5,0,6,6,59,1,1,The only picture of a hawk.  It is looking to the left.  You see lots of branches and darker blue sky. ,H,,5,open-images-958_686caac9c5b322e7,Checks/check2/open-images-2603_1b5152f01f0093e7img3.jpg,Checks/check2/open-images-1836_069810916ce5d675img8.jpg,Checks/check2/open-images-974_0748fdedc4bf8b7bimg2.jpg,Checks/check2/open-images-617_01fb725fb1aa7b04img6.jpg,Checks/check2/open-images-507_047769e1f977cd97img2.jpg,Checks/check2/open-images-958_686caac9c5b322e7img5.jpg,Checks/check2/open-images-1278_21851d9bf5dc05c9img7.jpg,Checks/check2/open-images-2424_05f04546e01499f2img0.jpg,Checks/check2/open-images-1529_1442b11a10a6aeadimg3.jpg,Checks/check2/open-images-514_2c523ddedc2561d4img1.jpg,,,1,2022-06-15_17h28.55.655,annotation,2021.2.3,Win32,60.0024001,,
,,,,,,,,,,,,,,,,,-0.255208333,0.138020833,1,0,0,image_1,0,7,7,20,1,1389,A woman is cutting flowers on a white cake.,M,0,4,MSR-VTT-videoTestVideo_video9279-shot1_1,Images/MSR-VTT-videoTestVideo_video9279-shot1_1/img47.jpg,Images/MSR-VTT-videoTestVideo_video9279-shot1_1/img49.jpg,Images/MSR-VTT-videoTestVideo_video9279-shot1_1/img54.jpg,Images/MSR-VTT-videoTestVideo_video9279-shot1_1/img63.jpg,Images/MSR-VTT-videoTestVideo_video9279-shot1_1/img72.jpg,Images/MSR-VTT-videoTestVideo_video9279-shot1_1/img146.jpg,Images/MSR-VTT-videoTestVideo_video9279-shot1_1/img154.jpg,Images/MSR-VTT-videoTestVideo_video9279-shot1_1/img155.jpg,Images/MSR-VTT-videoTestVideo_video9279-shot1_1/img157.jpg,Images/MSR-VTT-videoTestVideo_video9279-shot1_1/img159.jpg,861,24,0,2022-06-15_17h28.55.655,annotation,2021.2.3,Win32,60.0024001,,
,,,,,,,,,,,,,,,,,0.490885417,0.12890625,1,0,0,image_4,0,8,8,2,1,816,the kid with the green hat's hat and hand are visible in the bottom left corner,H,0,0,video-storytelling-videobirthday__amwPjAcoC8-shot14_0,Images/video-storytelling-videobirthday__amwPjAcoC8-shot14_0/img0.jpg,Images/video-storytelling-videobirthday__amwPjAcoC8-shot14_0/img6.jpg,Images/video-storytelling-videobirthday__amwPjAcoC8-shot14_0/img11.jpg,Images/video-storytelling-videobirthday__amwPjAcoC8-shot14_0/img14.jpg,Images/video-storytelling-videobirthday__amwPjAcoC8-shot14_0/img15.jpg,Images/video-storytelling-videobirthday__amwPjAcoC8-shot14_0/img16.jpg,Images/video-storytelling-videobirthday__amwPjAcoC8-shot14_0/img18.jpg,Images/video-storytelling-videobirthday__amwPjAcoC8-shot14_0/img21.jpg,Images/video-storytelling-videobirthday__amwPjAcoC8-shot14_0/img23.jpg,Images/video-storytelling-videobirthday__amwPjAcoC8-shot14_0/img26.jpg,1579,24,0,2022-06-15_17h28.55.655,annotation,2021.2.3,Win32,60.0024001,,
,,,,,,,,,,,,,,,,,0.463541667,0.123697917,1,0,0,image_4,0,9,9,53,1,1147,A woman standing in front of a table filled with food.,M,1,4,video-storytelling-videobirthday_fwpYnUDbusw-shot8_0,Images/video-storytelling-videobirthday_fwpYnUDbusw-shot8_0/img0.jpg,Images/video-storytelling-videobirthday_fwpYnUDbusw-shot8_0/img3.jpg,Images/video-storytelling-videobirthday_fwpYnUDbusw-shot8_0/img14.jpg,Images/video-storytelling-videobirthday_fwpYnUDbusw-shot8_0/img38.jpg,Images/video-storytelling-videobirthday_fwpYnUDbusw-shot8_0/img42.jpg,Images/video-storytelling-videobirthday_fwpYnUDbusw-shot8_0/img54.jpg,Images/video-storytelling-videobirthday_fwpYnUDbusw-shot8_0/img61.jpg,Images/video-storytelling-videobirthday_fwpYnUDbusw-shot8_0/img67.jpg,Images/video-storytelling-videobirthday_fwpYnUDbusw-shot8_0/img72.jpg,Images/video-storytelling-videobirthday_fwpYnUDbusw-shot8_0/img79.jpg,1721,24,0,2022-06-15_17h28.55.655,annotation,2021.2.3,Win32,60.0024001,,
,,,,,,,,,,,,,,,,,-0.248697917,-0.138020833,1,0,0,image_6,0,10,10,55,1,58,The middle male dancer has his arms behind his back.,H,0,7,MSR-VTT-videoTestVideo_video9044-shot1_0,Images/MSR-VTT-videoTestVideo_video9044-shot1_0/img0.jpg,Images/MSR-VTT-videoTestVideo_video9044-shot1_0/img3.jpg,Images/MSR-VTT-videoTestVideo_video9044-shot1_0/img6.jpg,Images/MSR-VTT-videoTestVideo_video9044-shot1_0/img8.jpg,Images/MSR-VTT-videoTestVideo_video9044-shot1_0/img11.jpg,Images/MSR-VTT-videoTestVideo_video9044-shot1_0/img15.jpg,Images/MSR-VTT-videoTestVideo_video9044-shot1_0/img21.jpg,Images/MSR-VTT-videoTestVideo_video9044-shot1_0/img31.jpg,Images/MSR-VTT-videoTestVideo_video9044-shot1_0/img41.jpg,Images/MSR-VTT-videoTestVideo_video9044-shot1_0/img54.jpg,468,24,0,2022-06-15_17h28.55.655,annotation,2021.2.3,Win32,60.0024001,,
,,,,,,,,,,,,,,,,,0.475260417,0.184895833,1,0,0,image_4,0,11,11,41,1,1614,A group of video game boards on a boardwalk.,M,0,7,MSR-VTT-videoTestVideo_video8896-shot1_1,Images/MSR-VTT-videoTestVideo_video8896-shot1_1/img96.jpg,Images/MSR-VTT-videoTestVideo_video8896-shot1_1/img109.jpg,Images/MSR-VTT-videoTestVideo_video8896-shot1_1/img129.jpg,Images/MSR-VTT-videoTestVideo_video8896-shot1_1/img136.jpg,Images/MSR-VTT-videoTestVideo_video8896-shot1_1/img146.jpg,Images/MSR-VTT-videoTestVideo_video8896-shot1_1/img198.jpg,Images/MSR-VTT-videoTestVideo_video8896-shot1_1/img231.jpg,Images/MSR-VTT-videoTestVideo_video8896-shot1_1/img272.jpg,Images/MSR-VTT-videoTestVideo_video8896-shot1_1/img314.jpg,Images/MSR-VTT-videoTestVideo_video8896-shot1_1/img367.jpg,118,24,0,2022-06-15_17h28.55.655,annotation,2021.2.3,Win32,60.0024001,,
,,,,,,,,,,,,,,,,,-0.220052083,-0.122395833,1,0,0,image_6,0,12,12,51,1,541,You can just start to see the man's left hand come into the image in the lower right corner. ,H,0,6,MSR-VTT-videoTestVideo_video7473-shot11_3,Images/MSR-VTT-videoTestVideo_video7473-shot11_3/img102.jpg,Images/MSR-VTT-videoTestVideo_video7473-shot11_3/img105.jpg,Images/MSR-VTT-videoTestVideo_video7473-shot11_3/img107.jpg,Images/MSR-VTT-videoTestVideo_video7473-shot11_3/img110.jpg,Images/MSR-VTT-videoTestVideo_video7473-shot11_3/img114.jpg,Images/MSR-VTT-videoTestVideo_video7473-shot11_3/img118.jpg,Images/MSR-VTT-videoTestVideo_video7473-shot11_3/img128.jpg,Images/MSR-VTT-videoTestVideo_video7473-shot11_3/img132.jpg,Images/MSR-VTT-videoTestVideo_video7473-shot11_3/img138.jpg,Images/MSR-VTT-videoTestVideo_video7473-shot11_3/img143.jpg,748,24,0,2022-06-15_17h28.55.655,annotation,2021.2.3,Win32,60.0024001,,
,,,,,,,,,,,,,,,,,0.236979167,-0.140625,1,0,0,image_8,0,13,13,1,1,1677,a close up of a woman with a cell phone in her hand.,M,0,6,MSR-VTT-videoTestVideo_video7533-shot1_4,Images/MSR-VTT-videoTestVideo_video7533-shot1_4/img398.jpg,Images/MSR-VTT-videoTestVideo_video7533-shot1_4/img402.jpg,Images/MSR-VTT-videoTestVideo_video7533-shot1_4/img406.jpg,Images/MSR-VTT-videoTestVideo_video7533-shot1_4/img413.jpg,Images/MSR-VTT-videoTestVideo_video7533-shot1_4/img417.jpg,Images/MSR-VTT-videoTestVideo_video7533-shot1_4/img423.jpg,Images/MSR-VTT-videoTestVideo_video7533-shot1_4/img425.jpg,Images/MSR-VTT-videoTestVideo_video7533-shot1_4/img429.jpg,Images/MSR-VTT-videoTestVideo_video7533-shot1_4/img449.jpg,Images/MSR-VTT-videoTestVideo_video7533-shot1_4/img456.jpg,261,24,0,2022-06-15_17h28.55.655,annotation,2021.2.3,Win32,60.0024001,,
,,,,,,,,,,,,,,,,,0.00390625,0.158854167,1,0,0,image_2,0,14,14,61,1,3,A grey elephant with golden leaves on it. ,H,,2,open-images-1745_0ed62fe71809b2f5,Checks/check4/open-images-2609_3f72daeb23764ecfimg6.jpg,Checks/check4/open-images-1928_60679e2899870e08img1.jpg,Checks/check4/open-images-1745_0ed62fe71809b2f5img2.jpg,Checks/check4/open-images-1811_9ae6351c7f7565edimg0.jpg,Checks/check4/open-images-1721_6f04da11945ea492img3.jpg,Checks/check4/open-images-1907_5f9be3e4ea5e22c7img2.jpg,Checks/check4/open-images-580_0ddffb9c25141999img1.jpg,Checks/check4/open-images-2924_0645dcbcf998fed9img3.jpg,Checks/check4/open-images-869_856ecbcb5faf76e3img8.jpg,Checks/check4/open-images-250_02039517e63a91fbimg1.jpg,,,1,2022-06-15_17h28.55.655,annotation,2021.2.3,Win32,60.0024001,,
,,,,,,,,,,,,,,,,,-0.502604167,0.131510417,1,0,0,image_0,0,15,15,44,1,737,A large offroad vehicle is kicking up dirt and dust in a grassy field. There is no pole or other vehicle visible. There is a smaller cloud of dust directly behind the front right wheel.,H,0,3,MSR-VTT-videoTestVideo_video8882-shot0_0,Images/MSR-VTT-videoTestVideo_video8882-shot0_0/img0.jpg,Images/MSR-VTT-videoTestVideo_video8882-shot0_0/img3.jpg,Images/MSR-VTT-videoTestVideo_video8882-shot0_0/img6.jpg,Images/MSR-VTT-videoTestVideo_video8882-shot0_0/img10.jpg,Images/MSR-VTT-videoTestVideo_video8882-shot0_0/img11.jpg,Images/MSR-VTT-videoTestVideo_video8882-shot0_0/img14.jpg,Images/MSR-VTT-videoTestVideo_video8882-shot0_0/img21.jpg,Images/MSR-VTT-videoTestVideo_video8882-shot0_0/img28.jpg,Images/MSR-VTT-videoTestVideo_video8882-shot0_0/img37.jpg,Images/MSR-VTT-videoTestVideo_video8882-shot0_0/img46.jpg,1764,24,0,2022-06-15_17h28.55.655,annotation,2021.2.3,Win32,60.0024001,,
,,,,,,,,,,,,,,,,,-0.303385417,0.147135417,1,0,0,image_1,0,16,16,62,1,4,A penguin holding a piece of paper with text on it. ,H,,1,open-images-2521_074d6af730ed17a6,Checks/check5/open-images-509_4d8bd994cb8c6eaeimg0.jpg,Checks/check5/open-images-2521_074d6af730ed17a6img1.jpg,Checks/check5/open-images-1365_a00a5fde334ae45aimg4.jpg,Checks/check5/open-images-1602_44092afdeab39e73img6.jpg,Checks/check5/open-images-1032_059f3cdfb85ee0ceimg3.jpg,Checks/check5/open-images-727_25b77fff36adba66img2.jpg,Checks/check5/open-images-2208_0fb92b9978d98575img2.jpg,Checks/check5/open-images-1305_05769e6abb16fdc8img9.jpg,Checks/check5/open-images-2676_052dbf7b4899430bimg1.jpg,Checks/check5/open-images-2569_1e81d79bb796a2dbimg7.jpg,,,1,2022-06-15_17h28.55.655,annotation,2021.2.3,Win32,60.0024001,,
,,,,,,,,,,,,,,,,,0.260416667,0.149739583,1,0,0,image_3,0,17,17,22,1,687,One man is visible and his fingers are directed at his own face.,H,0,2,MSR-VTT-videoTestVideo_video8416-shot0_0,Images/MSR-VTT-videoTestVideo_video8416-shot0_0/img0.jpg,Images/MSR-VTT-videoTestVideo_video8416-shot0_0/img1.jpg,Images/MSR-VTT-videoTestVideo_video8416-shot0_0/img3.jpg,Images/MSR-VTT-videoTestVideo_video8416-shot0_0/img6.jpg,Images/MSR-VTT-videoTestVideo_video8416-shot0_0/img11.jpg,Images/MSR-VTT-videoTestVideo_video8416-shot0_0/img14.jpg,Images/MSR-VTT-videoTestVideo_video8416-shot0_0/img16.jpg,Images/MSR-VTT-videoTestVideo_video8416-shot0_0/img21.jpg,Images/MSR-VTT-videoTestVideo_video8416-shot0_0/img22.jpg,Images/MSR-VTT-videoTestVideo_video8416-shot0_0/img30.jpg,594,24,0,2022-06-15_17h28.55.655,annotation,2021.2.3,Win32,60.0024001,,
,,,,,,,,,,,,,,,,,0.51171875,-0.203125,1,0,0,image_9,0,18,18,49,1,1461,A child holding a colorful pin on his arm.,M,1,8,video-storytelling-videobirthday__amwPjAcoC8-shot80_5,Images/video-storytelling-videobirthday__amwPjAcoC8-shot80_5/img277.jpg,Images/video-storytelling-videobirthday__amwPjAcoC8-shot80_5/img290.jpg,Images/video-storytelling-videobirthday__amwPjAcoC8-shot80_5/img292.jpg,Images/video-storytelling-videobirthday__amwPjAcoC8-shot80_5/img293.jpg,Images/video-storytelling-videobirthday__amwPjAcoC8-shot80_5/img297.jpg,Images/video-storytelling-videobirthday__amwPjAcoC8-shot80_5/img298.jpg,Images/video-storytelling-videobirthday__amwPjAcoC8-shot80_5/img300.jpg,Images/video-storytelling-videobirthday__amwPjAcoC8-shot80_5/img301.jpg,Images/video-storytelling-videobirthday__amwPjAcoC8-shot80_5/img303.jpg,Images/video-storytelling-videobirthday__amwPjAcoC8-shot80_5/img304.jpg,377,24,0,2022-06-15_17h28.55.655,annotation,2021.2.3,Win32,60.0024001,,
,,,,,,,,,,,,,,,,,-0.243489583,0.091145833,1,0,0,image_1,0,19,19,8,1,2045,A couple of different kinds of electronic toys sitting on a table.,M,0,7,MSR-VTT-videoTestVideo_video7910-shot1_0,Images/MSR-VTT-videoTestVideo_video7910-shot1_0/img0.jpg,Images/MSR-VTT-videoTestVideo_video7910-shot1_0/img6.jpg,Images/MSR-VTT-videoTestVideo_video7910-shot1_0/img41.jpg,Images/MSR-VTT-videoTestVideo_video7910-shot1_0/img64.jpg,Images/MSR-VTT-videoTestVideo_video7910-shot1_0/img65.jpg,Images/MSR-VTT-videoTestVideo_video7910-shot1_0/img72.jpg,Images/MSR-VTT-videoTestVideo_video7910-shot1_0/img75.jpg,Images/MSR-VTT-videoTestVideo_video7910-shot1_0/img78.jpg,Images/MSR-VTT-videoTestVideo_video7910-shot1_0/img80.jpg,Images/MSR-VTT-videoTestVideo_video7910-shot1_0/img81.jpg,528,24,0,2022-06-15_17h28.55.655,annotation,2021.2.3,Win32,60.0024001,,
,,,,,,,,,,,,,,,,,-0.013020833,0.1484375,1,0,0,image_2,0,20,20,28,1,1860,A toddler sitting on top of a table with a teddy bear.,M,0,0,video-storytelling-videobirthday__amwPjAcoC8-shot14_0,Images/video-storytelling-videobirthday__amwPjAcoC8-shot14_0/img0.jpg,Images/video-storytelling-videobirthday__amwPjAcoC8-shot14_0/img6.jpg,Images/video-storytelling-videobirthday__amwPjAcoC8-shot14_0/img11.jpg,Images/video-storytelling-videobirthday__amwPjAcoC8-shot14_0/img14.jpg,Images/video-storytelling-videobirthday__amwPjAcoC8-shot14_0/img15.jpg,Images/video-storytelling-videobirthday__amwPjAcoC8-shot14_0/img16.jpg,Images/video-storytelling-videobirthday__amwPjAcoC8-shot14_0/img18.jpg,Images/video-storytelling-videobirthday__amwPjAcoC8-shot14_0/img21.jpg,Images/video-storytelling-videobirthday__amwPjAcoC8-shot14_0/img23.jpg,Images/video-storytelling-videobirthday__amwPjAcoC8-shot14_0/img26.jpg,854,24,0,2022-06-15_17h28.55.655,annotation,2021.2.3,Win32,60.0024001,,
,,,,,,,,,,,,,,,,,0.321614583,-0.213541667,1,0,0,image_8,0,21,21,24,1,374,The bridesmaid has walked past the camera tripod and the bottom of her right foot is seen. ,H,1,7,video-storytelling-videowedding_Bp8t824h5NE-shot45_3,Images/video-storytelling-videowedding_Bp8t824h5NE-shot45_3/img600.jpg,Images/video-storytelling-videowedding_Bp8t824h5NE-shot45_3/img631.jpg,Images/video-storytelling-videowedding_Bp8t824h5NE-shot45_3/img646.jpg,Images/video-storytelling-videowedding_Bp8t824h5NE-shot45_3/img659.jpg,Images/video-storytelling-videowedding_Bp8t824h5NE-shot45_3/img670.jpg,Images/video-storytelling-videowedding_Bp8t824h5NE-shot45_3/img689.jpg,Images/video-storytelling-videowedding_Bp8t824h5NE-shot45_3/img714.jpg,Images/video-storytelling-videowedding_Bp8t824h5NE-shot45_3/img737.jpg,Images/video-storytelling-videowedding_Bp8t824h5NE-shot45_3/img765.jpg,Images/video-storytelling-videowedding_Bp8t824h5NE-shot45_3/img785.jpg,1453,24,0,2022-06-15_17h28.55.655,annotation,2021.2.3,Win32,60.0024001,,
,,,,,,,,,,,,,,,,,-0.205729167,0.138020833,1,0,0,image_1,0,22,22,27,1,1908,A couple of people sitting on a couch next to a television.,M,0,3,MSR-VTT-videoTestVideo_video8176-shot1_0,Images/MSR-VTT-videoTestVideo_video8176-shot1_0/img0.jpg,Images/MSR-VTT-videoTestVideo_video8176-shot1_0/img54.jpg,Images/MSR-VTT-videoTestVideo_video8176-shot1_0/img73.jpg,Images/MSR-VTT-videoTestVideo_video8176-shot1_0/img88.jpg,Images/MSR-VTT-videoTestVideo_video8176-shot1_0/img109.jpg,Images/MSR-VTT-videoTestVideo_video8176-shot1_0/img110.jpg,Images/MSR-VTT-videoTestVideo_video8176-shot1_0/img112.jpg,Images/MSR-VTT-videoTestVideo_video8176-shot1_0/img114.jpg,Images/MSR-VTT-videoTestVideo_video8176-shot1_0/img139.jpg,Images/MSR-VTT-videoTestVideo_video8176-shot1_0/img146.jpg,900,24,0,2022-06-15_17h28.55.655,annotation,2021.2.3,Win32,60.0024001,,
,,,,,,,,,,,,,,,,,-0.015625,0.139322917,1,0,0,image_2,0,23,23,16,1,801,The right side of the man's head is right next to the black women in the white robe.  The left side is covering the face of the woman on the far left but not her hair.,H,0,5,video-storytelling-videowedding_46xhFCXBMJs-shot34_1,Images/video-storytelling-videowedding_46xhFCXBMJs-shot34_1/img51.jpg,Images/video-storytelling-videowedding_46xhFCXBMJs-shot34_1/img53.jpg,Images/video-storytelling-videowedding_46xhFCXBMJs-shot34_1/img55.jpg,Images/video-storytelling-videowedding_46xhFCXBMJs-shot34_1/img57.jpg,Images/video-storytelling-videowedding_46xhFCXBMJs-shot34_1/img59.jpg,Images/video-storytelling-videowedding_46xhFCXBMJs-shot34_1/img64.jpg,Images/video-storytelling-videowedding_46xhFCXBMJs-shot34_1/img66.jpg,Images/video-storytelling-videowedding_46xhFCXBMJs-shot34_1/img70.jpg,Images/video-storytelling-videowedding_46xhFCXBMJs-shot34_1/img78.jpg,Images/video-storytelling-videowedding_46xhFCXBMJs-shot34_1/img86.jpg,1420,24,0,2022-06-15_17h28.55.655,annotation,2021.2.3,Win32,60.0024001,,
,,,,,,,,,,,,,,,,,-0.268229167,0.196614583,1,0,0,image_1,0,24,24,33,1,2007,A person cutting up a candy bowl with a spoon.,M,0,6,YouCook-video0063-shot17_1,Images/YouCook-video0063-shot17_1/img90.jpg,Images/YouCook-video0063-shot17_1/img97.jpg,Images/YouCook-video0063-shot17_1/img110.jpg,Images/YouCook-video0063-shot17_1/img112.jpg,Images/YouCook-video0063-shot17_1/img117.jpg,Images/YouCook-video0063-shot17_1/img125.jpg,Images/YouCook-video0063-shot17_1/img126.jpg,Images/YouCook-video0063-shot17_1/img132.jpg,Images/YouCook-video0063-shot17_1/img144.jpg,Images/YouCook-video0063-shot17_1/img146.jpg,843,24,0,2022-06-15_17h28.55.655,annotation,2021.2.3,Win32,60.0024001,,
,,,,,,,,,,,,,,,,,-0.26953125,-0.138020833,1,0,0,image_6,0,25,25,56,1,1700,A woman holding a baby in a chair next to a man.,M,0,6,MSR-VTT-videoTestVideo_video9569-shot1_1,Images/MSR-VTT-videoTestVideo_video9569-shot1_1/img74.jpg,Images/MSR-VTT-videoTestVideo_video9569-shot1_1/img83.jpg,Images/MSR-VTT-videoTestVideo_video9569-shot1_1/img89.jpg,Images/MSR-VTT-videoTestVideo_video9569-shot1_1/img106.jpg,Images/MSR-VTT-videoTestVideo_video9569-shot1_1/img109.jpg,Images/MSR-VTT-videoTestVideo_video9569-shot1_1/img116.jpg,Images/MSR-VTT-videoTestVideo_video9569-shot1_1/img124.jpg,Images/MSR-VTT-videoTestVideo_video9569-shot1_1/img160.jpg,Images/MSR-VTT-videoTestVideo_video9569-shot1_1/img170.jpg,Images/MSR-VTT-videoTestVideo_video9569-shot1_1/img186.jpg,181,24,0,2022-06-15_17h28.55.655,annotation,2021.2.3,Win32,60.0024001,,
,,,,,,,,,,,,,,,,,-0.009114583,0.075520833,1,0,0,image_2,0,26,26,58,1,0,Pair of black gloves,H,,2,open-images-510_3a241cb30d6e5319,Checks/check1/open-images-225_1442c0d0ef23d58bimg3.jpg,Checks/check1/open-images-2759_3a42708fe77398b7img8.jpg,Checks/check1/open-images-510_3a241cb30d6e5319img2.jpg,Checks/check1/open-images-2209_02c98146fb93ff17img1.jpg,Checks/check1/open-images-1553_0f128317e56a9d2fimg9.jpg,Checks/check1/open-images-2666_044d7c6d11e6b493img8.jpg,Checks/check1/open-images-2880_159294646083f545img4.jpg,Checks/check1/open-images-609_2dc0baa993a2bd25img5.jpg,Checks/check1/open-images-1854_2b15616b4f1080e7img2.jpg,Checks/check1/open-images-1435_1b0ce31951048765img8.jpg,,,1,2022-06-15_17h28.55.655,annotation,2021.2.3,Win32,60.0024001,,
,,,,,,,,,,,,,,,,,-0.4921875,-0.15234375,1,0,0,image_5,0,27,27,13,1,544,The spoon is stuck in a little above the center of the mug with chocolate covering the bottom third of it,H,1,4,MSR-VTT-videoTestVideo_video7785-shot1_3,Images/MSR-VTT-videoTestVideo_video7785-shot1_3/img269.jpg,Images/MSR-VTT-videoTestVideo_video7785-shot1_3/img276.jpg,Images/MSR-VTT-videoTestVideo_video7785-shot1_3/img278.jpg,Images/MSR-VTT-videoTestVideo_video7785-shot1_3/img282.jpg,Images/MSR-VTT-videoTestVideo_video7785-shot1_3/img285.jpg,Images/MSR-VTT-videoTestVideo_video7785-shot1_3/img289.jpg,Images/MSR-VTT-videoTestVideo_video7785-shot1_3/img291.jpg,Images/MSR-VTT-videoTestVideo_video7785-shot1_3/img297.jpg,Images/MSR-VTT-videoTestVideo_video7785-shot1_3/img318.jpg,Images/MSR-VTT-videoTestVideo_video7785-shot1_3/img320.jpg,22,24,0,2022-06-15_17h28.55.655,annotation,2021.2.3,Win32,60.0024001,,
,,,,,,,,,,,,,,,,,-0.4765625,0.143229167,1,0,0,image_0,0,28,28,14,1,1427,A woman holding a baby bag on top of a bed.,M,0,3,video-storytelling-videochristmas_5RR_sRzKODA-shot21_5,Images/video-storytelling-videochristmas_5RR_sRzKODA-shot21_5/img167.jpg,Images/video-storytelling-videochristmas_5RR_sRzKODA-shot21_5/img171.jpg,Images/video-storytelling-videochristmas_5RR_sRzKODA-shot21_5/img173.jpg,Images/video-storytelling-videochristmas_5RR_sRzKODA-shot21_5/img174.jpg,Images/video-storytelling-videochristmas_5RR_sRzKODA-shot21_5/img176.jpg,Images/video-storytelling-videochristmas_5RR_sRzKODA-shot21_5/img178.jpg,Images/video-storytelling-videochristmas_5RR_sRzKODA-shot21_5/img180.jpg,Images/video-storytelling-videochristmas_5RR_sRzKODA-shot21_5/img181.jpg,Images/video-storytelling-videochristmas_5RR_sRzKODA-shot21_5/img182.jpg,Images/video-storytelling-videochristmas_5RR_sRzKODA-shot21_5/img184.jpg,952,24,0,2022-06-15_17h28.55.655,annotation,2021.2.3,Win32,60.0024001,,
,,,,,,,,,,,,,,,,,-0.479166667,0.131510417,1,0,0,image_0,0,29,29,11,1,1339,A bowl filled with eggs and bacon on a table.,M,1,1,YouCook-video0010-shot1_1,Images/YouCook-video0010-shot1_1/img165.jpg,Images/YouCook-video0010-shot1_1/img179.jpg,Images/YouCook-video0010-shot1_1/img189.jpg,Images/YouCook-video0010-shot1_1/img201.jpg,Images/YouCook-video0010-shot1_1/img213.jpg,Images/YouCook-video0010-shot1_1/img216.jpg,Images/YouCook-video0010-shot1_1/img226.jpg,Images/YouCook-video0010-shot1_1/img235.jpg,Images/YouCook-video0010-shot1_1/img240.jpg,Images/YouCook-video0010-shot1_1/img251.jpg,1233,24,0,2022-06-15_17h28.55.655,annotation,2021.2.3,Win32,60.0024001,,
,,,,,,,,,,,,,,,,,0.005208333,-0.125,1,0,0,image_7,0,30,30,29,1,1640,A group of birds laying on top of a pile of dirt.,M,0,4,video-storytelling-videocamping_EytINruY3-U-shot37_0,Images/video-storytelling-videocamping_EytINruY3-U-shot37_0/img0.jpg,Images/video-storytelling-videocamping_EytINruY3-U-shot37_0/img16.jpg,Images/video-storytelling-videocamping_EytINruY3-U-shot37_0/img21.jpg,Images/video-storytelling-videocamping_EytINruY3-U-shot37_0/img42.jpg,Images/video-storytelling-videocamping_EytINruY3-U-shot37_0/img141.jpg,Images/video-storytelling-videocamping_EytINruY3-U-shot37_0/img159.jpg,Images/video-storytelling-videocamping_EytINruY3-U-shot37_0/img315.jpg,Images/video-storytelling-videocamping_EytINruY3-U-shot37_0/img317.jpg,Images/video-storytelling-videocamping_EytINruY3-U-shot37_0/img318.jpg,Images/video-storytelling-videocamping_EytINruY3-U-shot37_0/img321.jpg,904,24,0,2022-06-15_17h28.55.655,annotation,2021.2.3,Win32,60.0024001,,
,,,,,,,,,,,,,,,,,-0.0234375,-0.186197917,1,0,0,image_7,0,31,31,43,1,695,The car is right in the middle of the dark black section of the road.,H,0,7,MSR-VTT-videoTestVideo_video7464-shot1_1,Images/MSR-VTT-videoTestVideo_video7464-shot1_1/img245.jpg,Images/MSR-VTT-videoTestVideo_video7464-shot1_1/img248.jpg,Images/MSR-VTT-videoTestVideo_video7464-shot1_1/img250.jpg,Images/MSR-VTT-videoTestVideo_video7464-shot1_1/img254.jpg,Images/MSR-VTT-videoTestVideo_video7464-shot1_1/img257.jpg,Images/MSR-VTT-videoTestVideo_video7464-shot1_1/img269.jpg,Images/MSR-VTT-videoTestVideo_video7464-shot1_1/img274.jpg,Images/MSR-VTT-videoTestVideo_video7464-shot1_1/img288.jpg,Images/MSR-VTT-videoTestVideo_video7464-shot1_1/img304.jpg,Images/MSR-VTT-videoTestVideo_video7464-shot1_1/img307.jpg,1108,24,0,2022-06-15_17h28.55.655,annotation,2021.2.3,Win32,60.0024001,,
,,,,,,,,,,,,,,,,,0.473958333,-0.151041667,1,0,0,image_9,0,32,32,60,1,2,Green type writer with a red tape. ,H,,9,open-images-531_0dd4eb59d465a8be,Checks/check3/open-images-503_1ccd6fa641154ebbimg7.jpg,Checks/check3/open-images-1852_00faf52058ad28b8img4.jpg,Checks/check3/open-images-386_1b2e28d6d994603eimg1.jpg,Checks/check3/open-images-471_1121e9f97c200ac0img8.jpg,Checks/check3/open-images-1886_3db71eaddb618934img8.jpg,Checks/check3/open-images-1696_20a4ebf0c0f76b05img6.jpg,Checks/check3/open-images-2447_128483a48e1552f4img6.jpg,Checks/check3/open-images-2994_9965cbf8aa20bda0img2.jpg,Checks/check3/open-images-1068_03d63613107970b3img6.jpg,Checks/check3/open-images-531_0dd4eb59d465a8beimg9.jpg,,,1,2022-06-15_17h28.55.655,annotation,2021.2.3,Win32,60.0024001,,
,,,,,,,,,,,,,,,,,-0.497395833,0.130208333,1,0,0,image_0,0,33,33,37,1,882,Two hands are visible touching the red paper. The top edge of the paper is right against the top of the frame. It's a little blurry.,H,0,3,MSR-VTT-videoTestVideo_video8153-shot1_0,Images/MSR-VTT-videoTestVideo_video8153-shot1_0/img5.jpg,Images/MSR-VTT-videoTestVideo_video8153-shot1_0/img18.jpg,Images/MSR-VTT-videoTestVideo_video8153-shot1_0/img22.jpg,Images/MSR-VTT-videoTestVideo_video8153-shot1_0/img23.jpg,Images/MSR-VTT-videoTestVideo_video8153-shot1_0/img26.jpg,Images/MSR-VTT-videoTestVideo_video8153-shot1_0/img47.jpg,Images/MSR-VTT-videoTestVideo_video8153-shot1_0/img73.jpg,Images/MSR-VTT-videoTestVideo_video8153-shot1_0/img91.jpg,Images/MSR-VTT-videoTestVideo_video8153-shot1_0/img129.jpg,Images/MSR-VTT-videoTestVideo_video8153-shot1_0/img216.jpg,376,24,0,2022-06-15_17h28.55.655,annotation,2021.2.3,Win32,60.0024001,,
,,,,,,,,,,,,,,,,,0.23046875,0.16015625,1,0,0,image_3,0,34,34,9,1,686,A man in yellow shoes is standing facing right with both hands out in front of him.,H,0,3,MSR-VTT-videoTestVideo_video7776-shot0_1,Images/MSR-VTT-videoTestVideo_video7776-shot0_1/img171.jpg,Images/MSR-VTT-videoTestVideo_video7776-shot0_1/img193.jpg,Images/MSR-VTT-videoTestVideo_video7776-shot0_1/img202.jpg,Images/MSR-VTT-videoTestVideo_video7776-shot0_1/img250.jpg,Images/MSR-VTT-videoTestVideo_video7776-shot0_1/img288.jpg,Images/MSR-VTT-videoTestVideo_video7776-shot0_1/img325.jpg,Images/MSR-VTT-videoTestVideo_video7776-shot0_1/img346.jpg,Images/MSR-VTT-videoTestVideo_video7776-shot0_1/img350.jpg,Images/MSR-VTT-videoTestVideo_video7776-shot0_1/img353.jpg,Images/MSR-VTT-videoTestVideo_video7776-shot0_1/img358.jpg,1173,24,0,2022-06-15_17h28.55.655,annotation,2021.2.3,Win32,60.0024001,,
,,,,,,,,,,,,,,,,,0.276041667,0.139322917,1,0,0,image_3,0,35,35,32,1,360,the woman has her left eye blocked partially by a white pole,H,0,0,video-storytelling-videowedding_de8dLXvgV-I-shot5_4,Images/video-storytelling-videowedding_de8dLXvgV-I-shot5_4/img200.jpg,Images/video-storytelling-videowedding_de8dLXvgV-I-shot5_4/img203.jpg,Images/video-storytelling-videowedding_de8dLXvgV-I-shot5_4/img205.jpg,Images/video-storytelling-videowedding_de8dLXvgV-I-shot5_4/img207.jpg,Images/video-storytelling-videowedding_de8dLXvgV-I-shot5_4/img210.jpg,Images/video-storytelling-videowedding_de8dLXvgV-I-shot5_4/img212.jpg,Images/video-storytelling-videowedding_de8dLXvgV-I-shot5_4/img215.jpg,Images/video-storytelling-videowedding_de8dLXvgV-I-shot5_4/img216.jpg,Images/video-storytelling-videowedding_de8dLXvgV-I-shot5_4/img218.jpg,Images/video-storytelling-videowedding_de8dLXvgV-I-shot5_4/img220.jpg,556,24,0,2022-06-15_17h28.55.655,annotation,2021.2.3,Win32,60.0024001,,
,,,,,,,,,,,,,,,,,0.20703125,0.12890625,1,0,0,image_3,0,36,36,34,1,300,The last three letters of the text on the left are still visible. ,H,0,3,MSR-VTT-videoTestVideo_video8093-shot1_0,Images/MSR-VTT-videoTestVideo_video8093-shot1_0/img0.jpg,Images/MSR-VTT-videoTestVideo_video8093-shot1_0/img4.jpg,Images/MSR-VTT-videoTestVideo_video8093-shot1_0/img9.jpg,Images/MSR-VTT-videoTestVideo_video8093-shot1_0/img13.jpg,Images/MSR-VTT-videoTestVideo_video8093-shot1_0/img20.jpg,Images/MSR-VTT-videoTestVideo_video8093-shot1_0/img25.jpg,Images/MSR-VTT-videoTestVideo_video8093-shot1_0/img28.jpg,Images/MSR-VTT-videoTestVideo_video8093-shot1_0/img32.jpg,Images/MSR-VTT-videoTestVideo_video8093-shot1_0/img41.jpg,Images/MSR-VTT-videoTestVideo_video8093-shot1_0/img43.jpg,921,24,0,2022-06-15_17h28.55.655,annotation,2021.2.3,Win32,60.0024001,,
,,,,,,,,,,,,,,,,,0.25,0.138020833,1,0,0,image_3,0,37,37,25,1,1246,A group of people playing a game of ping pong.,M,1,7,video-storytelling-videobirthday__amwPjAcoC8-shot15_0,Images/video-storytelling-videobirthday__amwPjAcoC8-shot15_0/img0.jpg,Images/video-storytelling-videobirthday__amwPjAcoC8-shot15_0/img3.jpg,Images/video-storytelling-videobirthday__amwPjAcoC8-shot15_0/img8.jpg,Images/video-storytelling-videobirthday__amwPjAcoC8-shot15_0/img14.jpg,Images/video-storytelling-videobirthday__amwPjAcoC8-shot15_0/img17.jpg,Images/video-storytelling-videobirthday__amwPjAcoC8-shot15_0/img22.jpg,Images/video-storytelling-videobirthday__amwPjAcoC8-shot15_0/img26.jpg,Images/video-storytelling-videobirthday__amwPjAcoC8-shot15_0/img28.jpg,Images/video-storytelling-videobirthday__amwPjAcoC8-shot15_0/img31.jpg,Images/video-storytelling-videobirthday__amwPjAcoC8-shot15_0/img36.jpg,744,24,0,2022-06-15_17h28.55.655,annotation,2021.2.3,Win32,60.0024001,,
,,,,,,,,,,,,,,,,,0.0078125,-0.127604167,1,0,0,image_7,0,38,38,0,1,1591,A bowl of food sitting on top of a metal plate.,M,1,1,YouCook-video0008-shot1_1,Images/YouCook-video0008-shot1_1/img458.jpg,Images/YouCook-video0008-shot1_1/img498.jpg,Images/YouCook-video0008-shot1_1/img545.jpg,Images/YouCook-video0008-shot1_1/img553.jpg,Images/YouCook-video0008-shot1_1/img589.jpg,Images/YouCook-video0008-shot1_1/img603.jpg,Images/YouCook-video0008-shot1_1/img653.jpg,Images/YouCook-video0008-shot1_1/img692.jpg,Images/YouCook-video0008-shot1_1/img742.jpg,Images/YouCook-video0008-shot1_1/img763.jpg,829,24,0,2022-06-15_17h28.55.655,annotation,2021.2.3,Win32,60.0024001,,
,,,,,,,,,,,,,,,,,0.486979167,0.126302083,1,0,0,image_4,0,39,39,52,1,2023,A blurry image of a person playing a video game.,M,0,1,MSR-VTT-videoTestVideo_video8931-shot1_1,Images/MSR-VTT-videoTestVideo_video8931-shot1_1/img276.jpg,Images/MSR-VTT-videoTestVideo_video8931-shot1_1/img291.jpg,Images/MSR-VTT-videoTestVideo_video8931-shot1_1/img300.jpg,Images/MSR-VTT-videoTestVideo_video8931-shot1_1/img330.jpg,Images/MSR-VTT-videoTestVideo_video8931-shot1_1/img367.jpg,Images/MSR-VTT-videoTestVideo_video8931-shot1_1/img396.jpg,Images/MSR-VTT-videoTestVideo_video8931-shot1_1/img417.jpg,Images/MSR-VTT-videoTestVideo_video8931-shot1_1/img422.jpg,Images/MSR-VTT-videoTestVideo_video8931-shot1_1/img442.jpg,Images/MSR-VTT-videoTestVideo_video8931-shot1_1/img494.jpg,1351,24,0,2022-06-15_17h28.55.655,annotation,2021.2.3,Win32,60.0024001,,
,,,,,,,,,,,,,,,,,0.015625,0.138020833,1,0,0,image_2,0,40,40,3,1,1599,A man standing in a kitchen preparing food.,M,0,4,YouCook-video0017-shot2_3,Images/YouCook-video0017-shot2_3/img157.jpg,Images/YouCook-video0017-shot2_3/img159.jpg,Images/YouCook-video0017-shot2_3/img160.jpg,Images/YouCook-video0017-shot2_3/img161.jpg,Images/YouCook-video0017-shot2_3/img164.jpg,Images/YouCook-video0017-shot2_3/img165.jpg,Images/YouCook-video0017-shot2_3/img167.jpg,Images/YouCook-video0017-shot2_3/img172.jpg,Images/YouCook-video0017-shot2_3/img176.jpg,Images/YouCook-video0017-shot2_3/img180.jpg,1289,24,0,2022-06-15_17h28.55.655,annotation,2021.2.3,Win32,60.0024001,,
,,,,,,,,,,,,,,,,,0.244791667,0.153645833,1,0,0,image_3,0,41,41,19,1,838,"Only three women are visible, the fourth is completely hidden behind the man. The picture is mostly not blurry.",H,0,2,video-storytelling-videowedding_46xhFCXBMJs-shot34_2,Images/video-storytelling-videowedding_46xhFCXBMJs-shot34_2/img87.jpg,Images/video-storytelling-videowedding_46xhFCXBMJs-shot34_2/img90.jpg,Images/video-storytelling-videowedding_46xhFCXBMJs-shot34_2/img94.jpg,Images/video-storytelling-videowedding_46xhFCXBMJs-shot34_2/img100.jpg,Images/video-storytelling-videowedding_46xhFCXBMJs-shot34_2/img104.jpg,Images/video-storytelling-videowedding_46xhFCXBMJs-shot34_2/img113.jpg,Images/video-storytelling-videowedding_46xhFCXBMJs-shot34_2/img129.jpg,Images/video-storytelling-videowedding_46xhFCXBMJs-shot34_2/img139.jpg,Images/video-storytelling-videowedding_46xhFCXBMJs-shot34_2/img159.jpg,Images/video-storytelling-videowedding_46xhFCXBMJs-shot34_2/img173.jpg,1199,24,0,2022-06-15_17h28.55.655,annotation,2021.2.3,Win32,60.0024001,,
,,,,,,,,,,,,,,,,,0.2890625,0.165364583,1,0,0,image_3,0,42,42,30,1,725,You can see the entire circle of dirt in the background but there is a bit of a gap between the top of it and the top of the image.  You can't see any of the person's face who is wearing red. ,H,1,4,MSR-VTT-videoTestVideo_video9876-shot1_0,Images/MSR-VTT-videoTestVideo_video9876-shot1_0/img0.jpg,Images/MSR-VTT-videoTestVideo_video9876-shot1_0/img2.jpg,Images/MSR-VTT-videoTestVideo_video9876-shot1_0/img4.jpg,Images/MSR-VTT-videoTestVideo_video9876-shot1_0/img6.jpg,Images/MSR-VTT-videoTestVideo_video9876-shot1_0/img7.jpg,Images/MSR-VTT-videoTestVideo_video9876-shot1_0/img9.jpg,Images/MSR-VTT-videoTestVideo_video9876-shot1_0/img13.jpg,Images/MSR-VTT-videoTestVideo_video9876-shot1_0/img17.jpg,Images/MSR-VTT-videoTestVideo_video9876-shot1_0/img19.jpg,Images/MSR-VTT-videoTestVideo_video9876-shot1_0/img21.jpg,907,24,0,2022-06-15_17h28.55.655,annotation,2021.2.3,Win32,60.0024001,,
,,,,,,,,,,,,,,,,,-0.2421875,0.131510417,1,0,0,image_1,0,43,43,23,1,1983,A man standing in a room with a cell phone in his hand.,M,0,6,MSR-VTT-videoTestVideo_video9608-shot8_0,Images/MSR-VTT-videoTestVideo_video9608-shot8_0/img0.jpg,Images/MSR-VTT-videoTestVideo_video9608-shot8_0/img10.jpg,Images/MSR-VTT-videoTestVideo_video9608-shot8_0/img24.jpg,Images/MSR-VTT-videoTestVideo_video9608-shot8_0/img28.jpg,Images/MSR-VTT-videoTestVideo_video9608-shot8_0/img34.jpg,Images/MSR-VTT-videoTestVideo_video9608-shot8_0/img39.jpg,Images/MSR-VTT-videoTestVideo_video9608-shot8_0/img46.jpg,Images/MSR-VTT-videoTestVideo_video9608-shot8_0/img51.jpg,Images/MSR-VTT-videoTestVideo_video9608-shot8_0/img74.jpg,Images/MSR-VTT-videoTestVideo_video9608-shot8_0/img83.jpg,888,24,0,2022-06-15_17h28.55.655,annotation,2021.2.3,Win32,60.0024001,,
,,,,,,,,,,,,,,,,,-0.046875,0.151041667,1,0,0,image_2,0,44,44,40,1,228,You can just see the girl's closed left eye and she is putting on the blindfold. ,H,0,0,video-storytelling-videobirthday__amwPjAcoC8-shot79_1,Images/video-storytelling-videobirthday__amwPjAcoC8-shot79_1/img35.jpg,Images/video-storytelling-videobirthday__amwPjAcoC8-shot79_1/img38.jpg,Images/video-storytelling-videobirthday__amwPjAcoC8-shot79_1/img43.jpg,Images/video-storytelling-videobirthday__amwPjAcoC8-shot79_1/img49.jpg,Images/video-storytelling-videobirthday__amwPjAcoC8-shot79_1/img54.jpg,Images/video-storytelling-videobirthday__amwPjAcoC8-shot79_1/img59.jpg,Images/video-storytelling-videobirthday__amwPjAcoC8-shot79_1/img62.jpg,Images/video-storytelling-videobirthday__amwPjAcoC8-shot79_1/img71.jpg,Images/video-storytelling-videobirthday__amwPjAcoC8-shot79_1/img77.jpg,Images/video-storytelling-videobirthday__amwPjAcoC8-shot79_1/img80.jpg,401,24,0,2022-06-15_17h28.55.655,annotation,2021.2.3,Win32,60.0024001,,
,,,,,,,,,,,,,,,,,-0.475260417,0.153645833,1,0,0,image_0,0,45,45,50,1,1289,A man and a woman standing next to each other.,M,0,1,video-storytelling-videowedding_46xhFCXBMJs-shot78_1,Images/video-storytelling-videowedding_46xhFCXBMJs-shot78_1/img47.jpg,Images/video-storytelling-videowedding_46xhFCXBMJs-shot78_1/img55.jpg,Images/video-storytelling-videowedding_46xhFCXBMJs-shot78_1/img58.jpg,Images/video-storytelling-videowedding_46xhFCXBMJs-shot78_1/img66.jpg,Images/video-storytelling-videowedding_46xhFCXBMJs-shot78_1/img70.jpg,Images/video-storytelling-videowedding_46xhFCXBMJs-shot78_1/img74.jpg,Images/video-storytelling-videowedding_46xhFCXBMJs-shot78_1/img76.jpg,Images/video-storytelling-videowedding_46xhFCXBMJs-shot78_1/img78.jpg,Images/video-storytelling-videowedding_46xhFCXBMJs-shot78_1/img81.jpg,Images/video-storytelling-videowedding_46xhFCXBMJs-shot78_1/img84.jpg,2070,24,0,2022-06-15_17h28.55.655,annotation,2021.2.3,Win32,60.0024001,,
,,,,,,,,,,,,,,,,,-0.491628615,-0.101217656,1,0,0,image_5,0,46,46,5,1,28,"both hands seems straight on the meat, while the right hand is looking more flat placed on top of the meat and clearly visible",H,1,5,YouCook-video0017-shot2_0,Images/YouCook-video0017-shot2_0/img0.jpg,Images/YouCook-video0017-shot2_0/img3.jpg,Images/YouCook-video0017-shot2_0/img17.jpg,Images/YouCook-video0017-shot2_0/img55.jpg,Images/YouCook-video0017-shot2_0/img64.jpg,Images/YouCook-video0017-shot2_0/img79.jpg,Images/YouCook-video0017-shot2_0/img82.jpg,Images/YouCook-video0017-shot2_0/img85.jpg,Images/YouCook-video0017-shot2_0/img94.jpg,Images/YouCook-video0017-shot2_0/img97.jpg,975,24,0,2022-06-15_17h28.55.655,annotation,2021.2.3,Win32,60.0024001,,
,,,,,,,,,,,,,,,,,0.248097412,0.142313546,1,0,0,image_3,0,47,47,10,1,1675,A person pouring chocolate into a chocolate cake.,M,0,9,YouCook-video0008-shot6_0,Images/YouCook-video0008-shot6_0/img0.jpg,Images/YouCook-video0008-shot6_0/img17.jpg,Images/YouCook-video0008-shot6_0/img46.jpg,Images/YouCook-video0008-shot6_0/img64.jpg,Images/YouCook-video0008-shot6_0/img114.jpg,Images/YouCook-video0008-shot6_0/img118.jpg,Images/YouCook-video0008-shot6_0/img143.jpg,Images/YouCook-video0008-shot6_0/img150.jpg,Images/YouCook-video0008-shot6_0/img171.jpg,Images/YouCook-video0008-shot6_0/img251.jpg,2049,24,0,2022-06-15_17h28.55.655,annotation,2021.2.3,Win32,60.0024001,,
,,,,,,,,,,,,,,,,,-0.505327245,0.105783866,1,0,0,image_0,0,48,48,46,1,990,"The corner of the wall is on the left and covering a quarter of the screen, the bottom is lighted. ",H,0,6,MSR-VTT-videoTestVideo_video7871-shot1_1,Images/MSR-VTT-videoTestVideo_video7871-shot1_1/img49.jpg,Images/MSR-VTT-videoTestVideo_video7871-shot1_1/img50.jpg,Images/MSR-VTT-videoTestVideo_video7871-shot1_1/img56.jpg,Images/MSR-VTT-videoTestVideo_video7871-shot1_1/img68.jpg,Images/MSR-VTT-videoTestVideo_video7871-shot1_1/img108.jpg,Images/MSR-VTT-videoTestVideo_video7871-shot1_1/img115.jpg,Images/MSR-VTT-videoTestVideo_video7871-shot1_1/img116.jpg,Images/MSR-VTT-videoTestVideo_video7871-shot1_1/img133.jpg,Images/MSR-VTT-videoTestVideo_video7871-shot1_1/img136.jpg,Images/MSR-VTT-videoTestVideo_video7871-shot1_1/img140.jpg,764,24,0,2022-06-15_17h28.55.655,annotation,2021.2.3,Win32,60.0024001,,
,,,,,,,,,,,,,,,,,-0.505327245,0.105783866,1,0,0,image_0,0,49,49,38,1,1570,A man standing next to a refrigerator in a kitchen.,M,0,5,MSR-VTT-videoTestVideo_video7388-shot2_0,Images/MSR-VTT-videoTestVideo_video7388-shot2_0/img0.jpg,Images/MSR-VTT-videoTestVideo_video7388-shot2_0/img5.jpg,Images/MSR-VTT-videoTestVideo_video7388-shot2_0/img12.jpg,Images/MSR-VTT-videoTestVideo_video7388-shot2_0/img17.jpg,Images/MSR-VTT-videoTestVideo_video7388-shot2_0/img21.jpg,Images/MSR-VTT-videoTestVideo_video7388-shot2_0/img26.jpg,Images/MSR-VTT-videoTestVideo_video7388-shot2_0/img29.jpg,Images/MSR-VTT-videoTestVideo_video7388-shot2_0/img30.jpg,Images/MSR-VTT-videoTestVideo_video7388-shot2_0/img37.jpg,Images/MSR-VTT-videoTestVideo_video7388-shot2_0/img41.jpg,1632,24,0,2022-06-15_17h28.55.655,annotation,2021.2.3,Win32,60.0024001,,
,,,,,,,,,,,,,,,,,-0.04414003,-0.148401826,1,0,0,image_7,0,50,50,47,1,1824,A woman holding a microphone in front of a stage.,M,0,6,MSR-VTT-videoTestVideo_video9243-shot1_1,Images/MSR-VTT-videoTestVideo_video9243-shot1_1/img36.jpg,Images/MSR-VTT-videoTestVideo_video9243-shot1_1/img38.jpg,Images/MSR-VTT-videoTestVideo_video9243-shot1_1/img45.jpg,Images/MSR-VTT-videoTestVideo_video9243-shot1_1/img66.jpg,Images/MSR-VTT-videoTestVideo_video9243-shot1_1/img74.jpg,Images/MSR-VTT-videoTestVideo_video9243-shot1_1/img79.jpg,Images/MSR-VTT-videoTestVideo_video9243-shot1_1/img90.jpg,Images/MSR-VTT-videoTestVideo_video9243-shot1_1/img120.jpg,Images/MSR-VTT-videoTestVideo_video9243-shot1_1/img129.jpg,Images/MSR-VTT-videoTestVideo_video9243-shot1_1/img145.jpg,462,24,0,2022-06-15_17h28.55.655,annotation,2021.2.3,Win32,60.0024001,,
,,,,,,,,,,,,,,,,,0.508371385,-0.127092846,1,0,0,image_9,0,51,51,48,1,1991,A woman holding a plate of food in front of her.,M,1,3,video-storytelling-videobirthday_fwpYnUDbusw-shot7_0,Images/video-storytelling-videobirthday_fwpYnUDbusw-shot7_0/img0.jpg,Images/video-storytelling-videobirthday_fwpYnUDbusw-shot7_0/img7.jpg,Images/video-storytelling-videobirthday_fwpYnUDbusw-shot7_0/img17.jpg,Images/video-storytelling-videobirthday_fwpYnUDbusw-shot7_0/img24.jpg,Images/video-storytelling-videobirthday_fwpYnUDbusw-shot7_0/img37.jpg,Images/video-storytelling-videobirthday_fwpYnUDbusw-shot7_0/img60.jpg,Images/video-storytelling-videobirthday_fwpYnUDbusw-shot7_0/img76.jpg,Images/video-storytelling-videobirthday_fwpYnUDbusw-shot7_0/img85.jpg,Images/video-storytelling-videobirthday_fwpYnUDbusw-shot7_0/img91.jpg,Images/video-storytelling-videobirthday_fwpYnUDbusw-shot7_0/img102.jpg,1338,24,0,2022-06-15_17h28.55.655,annotation,2021.2.3,Win32,60.0024001,,
,,,,,,,,,,,,,,,,,0.255707763,0.124048706,1,0,0,image_3,0,52,52,57,1,1956,A man standing next to a skateboard in a hallway.,M,0,0,MSR-VTT-videoTestVideo_video7780-shot3_4,Images/MSR-VTT-videoTestVideo_video7780-shot3_4/img75.jpg,Images/MSR-VTT-videoTestVideo_video7780-shot3_4/img76.jpg,Images/MSR-VTT-videoTestVideo_video7780-shot3_4/img77.jpg,Images/MSR-VTT-videoTestVideo_video7780-shot3_4/img78.jpg,Images/MSR-VTT-videoTestVideo_video7780-shot3_4/img79.jpg,Images/MSR-VTT-videoTestVideo_video7780-shot3_4/img80.jpg,Images/MSR-VTT-videoTestVideo_video7780-shot3_4/img82.jpg,Images/MSR-VTT-videoTestVideo_video7780-shot3_4/img83.jpg,Images/MSR-VTT-videoTestVideo_video7780-shot3_4/img86.jpg,Images/MSR-VTT-videoTestVideo_video7780-shot3_4/img87.jpg,2063,24,0,2022-06-15_17h28.55.655,annotation,2021.2.3,Win32,60.0024001,,
,,,,,,,,,,,,,,,,,0.488584475,-0.162100457,1,0,0,image_9,0,53,53,21,1,1575,A man jumping into a chair while holding a chair.,M,0,3,MSR-VTT-videoTestVideo_video9082-shot1_1,Images/MSR-VTT-videoTestVideo_video9082-shot1_1/img38.jpg,Images/MSR-VTT-videoTestVideo_video9082-shot1_1/img42.jpg,Images/MSR-VTT-videoTestVideo_video9082-shot1_1/img43.jpg,Images/MSR-VTT-videoTestVideo_video9082-shot1_1/img47.jpg,Images/MSR-VTT-videoTestVideo_video9082-shot1_1/img54.jpg,Images/MSR-VTT-videoTestVideo_video9082-shot1_1/img58.jpg,Images/MSR-VTT-videoTestVideo_video9082-shot1_1/img61.jpg,Images/MSR-VTT-videoTestVideo_video9082-shot1_1/img63.jpg,Images/MSR-VTT-videoTestVideo_video9082-shot1_1/img67.jpg,Images/MSR-VTT-videoTestVideo_video9082-shot1_1/img70.jpg,1458,24,0,2022-06-15_17h28.55.655,annotation,2021.2.3,Win32,60.0024001,,
,,,,,,,,,,,,,,,,,-0.473363775,0.148401826,1,0,0,image_0,0,54,54,45,1,1433,A couple of horses walking through a parking lot.,M,0,0,MSR-VTT-videoTestVideo_video7692-shot2_1,Images/MSR-VTT-videoTestVideo_video7692-shot2_1/img188.jpg,Images/MSR-VTT-videoTestVideo_video7692-shot2_1/img199.jpg,Images/MSR-VTT-videoTestVideo_video7692-shot2_1/img212.jpg,Images/MSR-VTT-videoTestVideo_video7692-shot2_1/img220.jpg,Images/MSR-VTT-videoTestVideo_video7692-shot2_1/img228.jpg,Images/MSR-VTT-videoTestVideo_video7692-shot2_1/img234.jpg,Images/MSR-VTT-videoTestVideo_video7692-shot2_1/img239.jpg,Images/MSR-VTT-videoTestVideo_video7692-shot2_1/img250.jpg,Images/MSR-VTT-videoTestVideo_video7692-shot2_1/img260.jpg,Images/MSR-VTT-videoTestVideo_video7692-shot2_1/img310.jpg,1115,24,0,2022-06-15_17h28.55.655,annotation,2021.2.3,Win32,60.0024001,,
,,,,,,,,,,,,,,,,,-0.473363775,0.148401826,1,0,0,image_0,0,55,55,6,1,1276,A little girl playing with a fire hydrant.,M,1,3,video-storytelling-videobirthday__amwPjAcoC8-shot43_0,Images/video-storytelling-videobirthday__amwPjAcoC8-shot43_0/img0.jpg,Images/video-storytelling-videobirthday__amwPjAcoC8-shot43_0/img3.jpg,Images/video-storytelling-videobirthday__amwPjAcoC8-shot43_0/img5.jpg,Images/video-storytelling-videobirthday__amwPjAcoC8-shot43_0/img13.jpg,Images/video-storytelling-videobirthday__amwPjAcoC8-shot43_0/img17.jpg,Images/video-storytelling-videobirthday__amwPjAcoC8-shot43_0/img19.jpg,Images/video-storytelling-videobirthday__amwPjAcoC8-shot43_0/img21.jpg,Images/video-storytelling-videobirthday__amwPjAcoC8-shot43_0/img22.jpg,Images/video-storytelling-videobirthday__amwPjAcoC8-shot43_0/img23.jpg,Images/video-storytelling-videobirthday__amwPjAcoC8-shot43_0/img26.jpg,1641,24,0,2022-06-15_17h28.55.655,annotation,2021.2.3,Win32,60.0024001,,
,,,,,,,,,,,,,,,,,-0.494672755,-0.125570776,1,0,0,image_5,0,56,56,31,1,224,"The person is placing a tile, with its top left corner covered by the surface he's placing it in",H,0,2,MSR-VTT-videoTestVideo_video7198-shot1_0,Images/MSR-VTT-videoTestVideo_video7198-shot1_0/img2.jpg,Images/MSR-VTT-videoTestVideo_video7198-shot1_0/img5.jpg,Images/MSR-VTT-videoTestVideo_video7198-shot1_0/img11.jpg,Images/MSR-VTT-videoTestVideo_video7198-shot1_0/img13.jpg,Images/MSR-VTT-videoTestVideo_video7198-shot1_0/img17.jpg,Images/MSR-VTT-videoTestVideo_video7198-shot1_0/img24.jpg,Images/MSR-VTT-videoTestVideo_video7198-shot1_0/img34.jpg,Images/MSR-VTT-videoTestVideo_video7198-shot1_0/img43.jpg,Images/MSR-VTT-videoTestVideo_video7198-shot1_0/img47.jpg,Images/MSR-VTT-videoTestVideo_video7198-shot1_0/img52.jpg,1588,24,0,2022-06-15_17h28.55.655,annotation,2021.2.3,Win32,60.0024001,,
,,,,,,,,,,,,,,,,,0.251141553,-0.136225266,1,0,0,image_8,0,57,57,39,1,1155,A close up of a person holding a bag of candy.,M,0,4,video-storytelling-videochristmas_5RR_sRzKODA-shot23_11,Images/video-storytelling-videochristmas_5RR_sRzKODA-shot23_11/img416.jpg,Images/video-storytelling-videochristmas_5RR_sRzKODA-shot23_11/img419.jpg,Images/video-storytelling-videochristmas_5RR_sRzKODA-shot23_11/img423.jpg,Images/video-storytelling-videochristmas_5RR_sRzKODA-shot23_11/img425.jpg,Images/video-storytelling-videochristmas_5RR_sRzKODA-shot23_11/img427.jpg,Images/video-storytelling-videochristmas_5RR_sRzKODA-shot23_11/img429.jpg,Images/video-storytelling-videochristmas_5RR_sRzKODA-shot23_11/img433.jpg,Images/video-storytelling-videochristmas_5RR_sRzKODA-shot23_11/img436.jpg,Images/video-storytelling-videochristmas_5RR_sRzKODA-shot23_11/img443.jpg,Images/video-storytelling-videochristmas_5RR_sRzKODA-shot23_11/img444.jpg,1749,24,0,2022-06-15_17h28.55.655,annotation,2021.2.3,Win32,60.0024001,,
,,,,,,,,,,,,,,,,,0.00304414,-0.149923896,1,0,0,image_7,0,58,58,26,1,1106,A man riding a snowboard down a snowy mountain.,M,0,1,MSR-VTT-videoTestVideo_video7564-shot1_0,Images/MSR-VTT-videoTestVideo_video7564-shot1_0/img0.jpg,Images/MSR-VTT-videoTestVideo_video7564-shot1_0/img7.jpg,Images/MSR-VTT-videoTestVideo_video7564-shot1_0/img10.jpg,Images/MSR-VTT-videoTestVideo_video7564-shot1_0/img15.jpg,Images/MSR-VTT-videoTestVideo_video7564-shot1_0/img17.jpg,Images/MSR-VTT-videoTestVideo_video7564-shot1_0/img20.jpg,Images/MSR-VTT-videoTestVideo_video7564-shot1_0/img25.jpg,Images/MSR-VTT-videoTestVideo_video7564-shot1_0/img27.jpg,Images/MSR-VTT-videoTestVideo_video7564-shot1_0/img36.jpg,Images/MSR-VTT-videoTestVideo_video7564-shot1_0/img42.jpg,566,24,0,2022-06-15_17h28.55.655,annotation,2021.2.3,Win32,60.0024001,,
,,,,,,,,,,,,,,,,,0.471841705,0.095129376,1,0,0,image_4,0,59,59,35,1,1042,The man is still a ways back from the motorcycle.  He is blocking the back half of it.  His left arm is near his side and the right is out front and bent,H,0,4,MSR-VTT-videoTestVideo_video7737-shot0_0,Images/MSR-VTT-videoTestVideo_video7737-shot0_0/img6.jpg,Images/MSR-VTT-videoTestVideo_video7737-shot0_0/img14.jpg,Images/MSR-VTT-videoTestVideo_video7737-shot0_0/img24.jpg,Images/MSR-VTT-videoTestVideo_video7737-shot0_0/img30.jpg,Images/MSR-VTT-videoTestVideo_video7737-shot0_0/img37.jpg,Images/MSR-VTT-videoTestVideo_video7737-shot0_0/img51.jpg,Images/MSR-VTT-videoTestVideo_video7737-shot0_0/img61.jpg,Images/MSR-VTT-videoTestVideo_video7737-shot0_0/img63.jpg,Images/MSR-VTT-videoTestVideo_video7737-shot0_0/img67.jpg,Images/MSR-VTT-videoTestVideo_video7737-shot0_0/img68.jpg,393,24,0,2022-06-15_17h28.55.655,annotation,2021.2.3,Win32,60.0024001,,
,,,,,,,,,,,,,,,,,0.01065449,0.177321157,1,0,0,image_2,0,60,60,42,1,80,"You can see that there's a smaller basket in front of the basket of eggs, but you can't clearly make out what's inside. A small part of the person's hand is visible coming out of the top middle edge, but no part of the left arm or hand are visible. You can see all the cakes on the book cover, and the lower cakes are almost touching the bottom edge.",H,0,8,MSR-VTT-videoTestVideo_video9053-shot1_7,Images/MSR-VTT-videoTestVideo_video9053-shot1_7/img321.jpg,Images/MSR-VTT-videoTestVideo_video9053-shot1_7/img324.jpg,Images/MSR-VTT-videoTestVideo_video9053-shot1_7/img330.jpg,Images/MSR-VTT-videoTestVideo_video9053-shot1_7/img344.jpg,Images/MSR-VTT-videoTestVideo_video9053-shot1_7/img354.jpg,Images/MSR-VTT-videoTestVideo_video9053-shot1_7/img357.jpg,Images/MSR-VTT-videoTestVideo_video9053-shot1_7/img362.jpg,Images/MSR-VTT-videoTestVideo_video9053-shot1_7/img365.jpg,Images/MSR-VTT-videoTestVideo_video9053-shot1_7/img367.jpg,Images/MSR-VTT-videoTestVideo_video9053-shot1_7/img369.jpg,1842,24,0,2022-06-15_17h28.55.655,annotation,2021.2.3,Win32,60.0024001,,
,,,,,,,,,,,,,,,,,0.254185693,-0.139269406,1,0,0,image_8,0,61,61,12,1,918,there is a white dish with meat in it on a wooden table,H,0,8,MSR-VTT-videoTestVideo_video8776-shot1_0,Images/MSR-VTT-videoTestVideo_video8776-shot1_0/img0.jpg,Images/MSR-VTT-videoTestVideo_video8776-shot1_0/img9.jpg,Images/MSR-VTT-videoTestVideo_video8776-shot1_0/img11.jpg,Images/MSR-VTT-videoTestVideo_video8776-shot1_0/img12.jpg,Images/MSR-VTT-videoTestVideo_video8776-shot1_0/img18.jpg,Images/MSR-VTT-videoTestVideo_video8776-shot1_0/img23.jpg,Images/MSR-VTT-videoTestVideo_video8776-shot1_0/img25.jpg,Images/MSR-VTT-videoTestVideo_video8776-shot1_0/img28.jpg,Images/MSR-VTT-videoTestVideo_video8776-shot1_0/img32.jpg,Images/MSR-VTT-videoTestVideo_video8776-shot1_0/img166.jpg,806,24,0,2022-06-15_17h28.55.655,annotation,2021.2.3,Win32,60.0024001,,
,,,,,,,,,,,,,,,,,0.238964992,0.142313546,1,0,0,image_3,0,62,62,15,1,125,The person's palm is towards us and touching the left bottom corner of the cake. There is a small amount of dark space between the right bottom corner of the photo and the edge of the cake.,H,1,5,video-storytelling-videobirthday_fwpYnUDbusw-shot15_0,Images/video-storytelling-videobirthday_fwpYnUDbusw-shot15_0/img0.jpg,Images/video-storytelling-videobirthday_fwpYnUDbusw-shot15_0/img3.jpg,Images/video-storytelling-videobirthday_fwpYnUDbusw-shot15_0/img6.jpg,Images/video-storytelling-videobirthday_fwpYnUDbusw-shot15_0/img11.jpg,Images/video-storytelling-videobirthday_fwpYnUDbusw-shot15_0/img19.jpg,Images/video-storytelling-videobirthday_fwpYnUDbusw-shot15_0/img27.jpg,Images/video-storytelling-videobirthday_fwpYnUDbusw-shot15_0/img37.jpg,Images/video-storytelling-videobirthday_fwpYnUDbusw-shot15_0/img70.jpg,Images/video-storytelling-videobirthday_fwpYnUDbusw-shot15_0/img113.jpg,Images/video-storytelling-videobirthday_fwpYnUDbusw-shot15_0/img131.jpg,1626,24,0,2022-06-15_17h28.55.655,annotation,2021.2.3,Win32,60.0024001,,
,,,,,,,,,,,,,,,,,,,,,,,,,,,,,,,,,,,,,,,,,,,,,,,2022-06-15_17h28.55.655,annotation,2021.2.3,Win32,60.0024001,space,58.0342
