mturk,key_resp_2.keys,key_resp_2.rt,key_resp_3.keys,key_resp_3.rt,mouse_2.x,mouse_2.y,mouse_2.leftButton,mouse_2.midButton,mouse_2.rightButton,mouse_2.clicked_name,key_resp_5.keys,key_resp_5.rt,key_resp.keys,key_resp.rt,key_resp_6.keys,key_resp_6.rt,mouse.x,mouse.y,mouse.leftButton,mouse.midButton,mouse.rightButton,mouse.time,mouse.clicked_name,trials.thisRepN,trials.thisTrialN,trials.thisN,trials.thisIndex,trials.ran,N,caption,class_caption,model_guessed,target_idx,image_set,img1,img2,img3,img4,img5,img6,img7,img8,img9,img10,Q_id,block,is_check,date,expName,psychopyVersion,OS,frameRate,key_resp_7.keys,key_resp_7.rt
4055508,space,7.7467,space,25.7466,0.225925926,0.116666667,1,0,0,ex4,space,8.8192,space,12.2112,space,1.6429,0.494444444,-0.134259259,1,0,0,25.8272,image_9,0,0,0,32,1,1335,A woman standing in front of a motorized horse.,M,1,8,video-storytelling-videocamping_1OzbiB1TIWI-shot12_8,Images/video-storytelling-videocamping_1OzbiB1TIWI-shot12_8/img429.jpg,Images/video-storytelling-videocamping_1OzbiB1TIWI-shot12_8/img439.jpg,Images/video-storytelling-videocamping_1OzbiB1TIWI-shot12_8/img440.jpg,Images/video-storytelling-videocamping_1OzbiB1TIWI-shot12_8/img441.jpg,Images/video-storytelling-videocamping_1OzbiB1TIWI-shot12_8/img443.jpg,Images/video-storytelling-videocamping_1OzbiB1TIWI-shot12_8/img445.jpg,Images/video-storytelling-videocamping_1OzbiB1TIWI-shot12_8/img452.jpg,Images/video-storytelling-videocamping_1OzbiB1TIWI-shot12_8/img456.jpg,Images/video-storytelling-videocamping_1OzbiB1TIWI-shot12_8/img458.jpg,Images/video-storytelling-videocamping_1OzbiB1TIWI-shot12_8/img466.jpg,1813,14,0,2022-06-18_09h44.51.987,annotation,2021.2.3,Win32,60.0024001,,
,,,,,,,,,,,,,,,,,0.481481481,0.117592593,1,0,0,45.6786,image_4,0,1,1,13,1,1880,A couple of wires sitting on top of a table.,M,0,6,MSR-VTT-videoTestVideo_video9723-shot1_1,Images/MSR-VTT-videoTestVideo_video9723-shot1_1/img47.jpg,Images/MSR-VTT-videoTestVideo_video9723-shot1_1/img51.jpg,Images/MSR-VTT-videoTestVideo_video9723-shot1_1/img70.jpg,Images/MSR-VTT-videoTestVideo_video9723-shot1_1/img84.jpg,Images/MSR-VTT-videoTestVideo_video9723-shot1_1/img147.jpg,Images/MSR-VTT-videoTestVideo_video9723-shot1_1/img157.jpg,Images/MSR-VTT-videoTestVideo_video9723-shot1_1/img160.jpg,Images/MSR-VTT-videoTestVideo_video9723-shot1_1/img173.jpg,Images/MSR-VTT-videoTestVideo_video9723-shot1_1/img175.jpg,Images/MSR-VTT-videoTestVideo_video9723-shot1_1/img183.jpg,362,14,0,2022-06-18_09h44.51.987,annotation,2021.2.3,Win32,60.0024001,,
,,,,,,,,,,,,,,,,,-0.27037037,-0.137962963,1,0,0,21.3076,image_6,0,2,2,3,1,1109,A girl playing with a Frisbee in a yard.,M,0,8,MSR-VTT-videoTestVideo_video7428-shot2_1,Images/MSR-VTT-videoTestVideo_video7428-shot2_1/img31.jpg,Images/MSR-VTT-videoTestVideo_video7428-shot2_1/img35.jpg,Images/MSR-VTT-videoTestVideo_video7428-shot2_1/img41.jpg,Images/MSR-VTT-videoTestVideo_video7428-shot2_1/img45.jpg,Images/MSR-VTT-videoTestVideo_video7428-shot2_1/img50.jpg,Images/MSR-VTT-videoTestVideo_video7428-shot2_1/img53.jpg,Images/MSR-VTT-videoTestVideo_video7428-shot2_1/img56.jpg,Images/MSR-VTT-videoTestVideo_video7428-shot2_1/img60.jpg,Images/MSR-VTT-videoTestVideo_video7428-shot2_1/img65.jpg,Images/MSR-VTT-videoTestVideo_video7428-shot2_1/img66.jpg,2014,14,0,2022-06-18_09h44.51.987,annotation,2021.2.3,Win32,60.0024001,,
,,,,,,,,,,,,,,,,,-0.264814815,0.151851852,1,0,0,7.0719,image_1,0,3,3,62,1,4,A penguin holding a piece of paper with text on it. ,H,,1,open-images-2521_074d6af730ed17a6,Checks/check5/open-images-509_4d8bd994cb8c6eaeimg0.jpg,Checks/check5/open-images-2521_074d6af730ed17a6img1.jpg,Checks/check5/open-images-1365_a00a5fde334ae45aimg4.jpg,Checks/check5/open-images-1602_44092afdeab39e73img6.jpg,Checks/check5/open-images-1032_059f3cdfb85ee0ceimg3.jpg,Checks/check5/open-images-727_25b77fff36adba66img2.jpg,Checks/check5/open-images-2208_0fb92b9978d98575img2.jpg,Checks/check5/open-images-1305_05769e6abb16fdc8img9.jpg,Checks/check5/open-images-2676_052dbf7b4899430bimg1.jpg,Checks/check5/open-images-2569_1e81d79bb796a2dbimg7.jpg,,,1,2022-06-18_09h44.51.987,annotation,2021.2.3,Win32,60.0024001,,
,,,,,,,,,,,,,,,,,-0.010185185,0.142592593,1,0,0,6.8592,image_2,0,4,4,61,1,3,A grey elephant with golden leaves on it. ,H,,2,open-images-1745_0ed62fe71809b2f5,Checks/check4/open-images-2609_3f72daeb23764ecfimg6.jpg,Checks/check4/open-images-1928_60679e2899870e08img1.jpg,Checks/check4/open-images-1745_0ed62fe71809b2f5img2.jpg,Checks/check4/open-images-1811_9ae6351c7f7565edimg0.jpg,Checks/check4/open-images-1721_6f04da11945ea492img3.jpg,Checks/check4/open-images-1907_5f9be3e4ea5e22c7img2.jpg,Checks/check4/open-images-580_0ddffb9c25141999img1.jpg,Checks/check4/open-images-2924_0645dcbcf998fed9img3.jpg,Checks/check4/open-images-869_856ecbcb5faf76e3img8.jpg,Checks/check4/open-images-250_02039517e63a91fbimg1.jpg,,,1,2022-06-18_09h44.51.987,annotation,2021.2.3,Win32,60.0024001,,
,,,,,,,,,,,,,,,,,0.502777778,-0.150925926,1,0,0,8.5678,image_9,0,5,5,38,1,181,"You can't see any of the man's face, and there is no girl.",H,1,9,MSR-VTT-videoTestVideo_video8703-shot1_0,Images/MSR-VTT-videoTestVideo_video8703-shot1_0/img0.jpg,Images/MSR-VTT-videoTestVideo_video8703-shot1_0/img10.jpg,Images/MSR-VTT-videoTestVideo_video8703-shot1_0/img20.jpg,Images/MSR-VTT-videoTestVideo_video8703-shot1_0/img88.jpg,Images/MSR-VTT-videoTestVideo_video8703-shot1_0/img99.jpg,Images/MSR-VTT-videoTestVideo_video8703-shot1_0/img125.jpg,Images/MSR-VTT-videoTestVideo_video8703-shot1_0/img139.jpg,Images/MSR-VTT-videoTestVideo_video8703-shot1_0/img142.jpg,Images/MSR-VTT-videoTestVideo_video8703-shot1_0/img155.jpg,Images/MSR-VTT-videoTestVideo_video8703-shot1_0/img162.jpg,1556,14,0,2022-06-18_09h44.51.987,annotation,2021.2.3,Win32,60.0024001,,
,,,,,,,,,,,,,,,,,-0.282407407,-0.149074074,1,0,0,20.4541,image_6,0,6,6,53,1,652,The horse is facing to the left with both the front and back pair of legs touching.,H,0,8,MSR-VTT-videoTestVideo_video9649-shot1_2,Images/MSR-VTT-videoTestVideo_video9649-shot1_2/img89.jpg,Images/MSR-VTT-videoTestVideo_video9649-shot1_2/img109.jpg,Images/MSR-VTT-videoTestVideo_video9649-shot1_2/img117.jpg,Images/MSR-VTT-videoTestVideo_video9649-shot1_2/img128.jpg,Images/MSR-VTT-videoTestVideo_video9649-shot1_2/img133.jpg,Images/MSR-VTT-videoTestVideo_video9649-shot1_2/img145.jpg,Images/MSR-VTT-videoTestVideo_video9649-shot1_2/img155.jpg,Images/MSR-VTT-videoTestVideo_video9649-shot1_2/img169.jpg,Images/MSR-VTT-videoTestVideo_video9649-shot1_2/img174.jpg,Images/MSR-VTT-videoTestVideo_video9649-shot1_2/img181.jpg,1084,14,0,2022-06-18_09h44.51.987,annotation,2021.2.3,Win32,60.0024001,,
,,,,,,,,,,,,,,,,,0.251851852,-0.150925926,1,0,0,26.0393,image_8,0,7,7,11,1,1955,A man and a woman standing next to each other.,M,1,6,video-storytelling-videowedding_Bp8t824h5NE-shot69_1,Images/video-storytelling-videowedding_Bp8t824h5NE-shot69_1/img227.jpg,Images/video-storytelling-videowedding_Bp8t824h5NE-shot69_1/img250.jpg,Images/video-storytelling-videowedding_Bp8t824h5NE-shot69_1/img275.jpg,Images/video-storytelling-videowedding_Bp8t824h5NE-shot69_1/img323.jpg,Images/video-storytelling-videowedding_Bp8t824h5NE-shot69_1/img428.jpg,Images/video-storytelling-videowedding_Bp8t824h5NE-shot69_1/img477.jpg,Images/video-storytelling-videowedding_Bp8t824h5NE-shot69_1/img492.jpg,Images/video-storytelling-videowedding_Bp8t824h5NE-shot69_1/img540.jpg,Images/video-storytelling-videowedding_Bp8t824h5NE-shot69_1/img565.jpg,Images/video-storytelling-videowedding_Bp8t824h5NE-shot69_1/img602.jpg,1580,14,0,2022-06-18_09h44.51.987,annotation,2021.2.3,Win32,60.0024001,,
,,,,,,,,,,,,,,,,,0.451851852,0.184259259,1,0,0,11.0763,image_4,0,8,8,45,1,46,There is just a tiny gap between the back of the girl on the left and the edge of the frame.,H,0,3,video-storytelling-videocamping_1OzbiB1TIWI-shot14_7,Images/video-storytelling-videocamping_1OzbiB1TIWI-shot14_7/img974.jpg,Images/video-storytelling-videocamping_1OzbiB1TIWI-shot14_7/img982.jpg,Images/video-storytelling-videocamping_1OzbiB1TIWI-shot14_7/img986.jpg,Images/video-storytelling-videocamping_1OzbiB1TIWI-shot14_7/img994.jpg,Images/video-storytelling-videocamping_1OzbiB1TIWI-shot14_7/img1001.jpg,Images/video-storytelling-videocamping_1OzbiB1TIWI-shot14_7/img1007.jpg,Images/video-storytelling-videocamping_1OzbiB1TIWI-shot14_7/img1024.jpg,Images/video-storytelling-videocamping_1OzbiB1TIWI-shot14_7/img1034.jpg,Images/video-storytelling-videocamping_1OzbiB1TIWI-shot14_7/img1037.jpg,Images/video-storytelling-videocamping_1OzbiB1TIWI-shot14_7/img1042.jpg,172,14,0,2022-06-18_09h44.51.987,annotation,2021.2.3,Win32,60.0024001,,
,,,,,,,,,,,,,,,,,0.000925926,0.157407407,1,0,0,24.6944,image_2,0,9,9,30,1,192,The image of the camera is blocking the middle of the middle word. The words are flat with only a small amount of shading.,H,0,2,MSR-VTT-videoTestVideo_video8534-shot2_0,Images/MSR-VTT-videoTestVideo_video8534-shot2_0/img0.jpg,Images/MSR-VTT-videoTestVideo_video8534-shot2_0/img1.jpg,Images/MSR-VTT-videoTestVideo_video8534-shot2_0/img3.jpg,Images/MSR-VTT-videoTestVideo_video8534-shot2_0/img4.jpg,Images/MSR-VTT-videoTestVideo_video8534-shot2_0/img5.jpg,Images/MSR-VTT-videoTestVideo_video8534-shot2_0/img8.jpg,Images/MSR-VTT-videoTestVideo_video8534-shot2_0/img12.jpg,Images/MSR-VTT-videoTestVideo_video8534-shot2_0/img14.jpg,Images/MSR-VTT-videoTestVideo_video8534-shot2_0/img20.jpg,Images/MSR-VTT-videoTestVideo_video8534-shot2_0/img26.jpg,1656,14,0,2022-06-18_09h44.51.987,annotation,2021.2.3,Win32,60.0024001,,
,,,,,,,,,,,,,,,,,-0.5,0.174074074,1,0,0,23.3576,image_0,0,10,10,50,1,1754,A woman standing in front of a crowd of people.,M,0,8,video-storytelling-videowedding_Bp8t824h5NE-shot45_3,Images/video-storytelling-videowedding_Bp8t824h5NE-shot45_3/img600.jpg,Images/video-storytelling-videowedding_Bp8t824h5NE-shot45_3/img631.jpg,Images/video-storytelling-videowedding_Bp8t824h5NE-shot45_3/img646.jpg,Images/video-storytelling-videowedding_Bp8t824h5NE-shot45_3/img659.jpg,Images/video-storytelling-videowedding_Bp8t824h5NE-shot45_3/img670.jpg,Images/video-storytelling-videowedding_Bp8t824h5NE-shot45_3/img689.jpg,Images/video-storytelling-videowedding_Bp8t824h5NE-shot45_3/img714.jpg,Images/video-storytelling-videowedding_Bp8t824h5NE-shot45_3/img737.jpg,Images/video-storytelling-videowedding_Bp8t824h5NE-shot45_3/img765.jpg,Images/video-storytelling-videowedding_Bp8t824h5NE-shot45_3/img785.jpg,2085,14,0,2022-06-18_09h44.51.987,annotation,2021.2.3,Win32,60.0024001,,
,,,,,,,,,,,,,,,,,-0.260185185,-0.121296296,1,0,0,14.8569,image_6,0,11,11,35,1,1203,A man standing next to a woman in a dress.,M,0,1,MSR-VTT-videoTestVideo_video9466-shot2_1,Images/MSR-VTT-videoTestVideo_video9466-shot2_1/img38.jpg,Images/MSR-VTT-videoTestVideo_video9466-shot2_1/img43.jpg,Images/MSR-VTT-videoTestVideo_video9466-shot2_1/img48.jpg,Images/MSR-VTT-videoTestVideo_video9466-shot2_1/img53.jpg,Images/MSR-VTT-videoTestVideo_video9466-shot2_1/img64.jpg,Images/MSR-VTT-videoTestVideo_video9466-shot2_1/img72.jpg,Images/MSR-VTT-videoTestVideo_video9466-shot2_1/img74.jpg,Images/MSR-VTT-videoTestVideo_video9466-shot2_1/img80.jpg,Images/MSR-VTT-videoTestVideo_video9466-shot2_1/img83.jpg,Images/MSR-VTT-videoTestVideo_video9466-shot2_1/img95.jpg,882,14,0,2022-06-18_09h44.51.987,annotation,2021.2.3,Win32,60.0024001,,
,,,,,,,,,,,,,,,,,0.027777778,-0.125925926,1,0,0,32.1374,image_7,0,12,12,24,1,994,The girl is showing what she has in her hand to the camera.  Her face is also just starting to turn to the left hand side of the picture,H,0,6,video-storytelling-videochristmas_5RR_sRzKODA-shot23_5,Images/video-storytelling-videochristmas_5RR_sRzKODA-shot23_5/img226.jpg,Images/video-storytelling-videochristmas_5RR_sRzKODA-shot23_5/img236.jpg,Images/video-storytelling-videochristmas_5RR_sRzKODA-shot23_5/img243.jpg,Images/video-storytelling-videochristmas_5RR_sRzKODA-shot23_5/img254.jpg,Images/video-storytelling-videochristmas_5RR_sRzKODA-shot23_5/img256.jpg,Images/video-storytelling-videochristmas_5RR_sRzKODA-shot23_5/img261.jpg,Images/video-storytelling-videochristmas_5RR_sRzKODA-shot23_5/img263.jpg,Images/video-storytelling-videochristmas_5RR_sRzKODA-shot23_5/img264.jpg,Images/video-storytelling-videochristmas_5RR_sRzKODA-shot23_5/img266.jpg,Images/video-storytelling-videochristmas_5RR_sRzKODA-shot23_5/img267.jpg,555,14,0,2022-06-18_09h44.51.987,annotation,2021.2.3,Win32,60.0024001,,
,,,,,,,,,,,,,,,,,0.213888889,0.150925926,1,0,0,53.112,image_3,0,13,13,46,1,1006,The girl's mouth is slightly open and you can see her top teeth.  The text is backwards but readable.  The upper left corner of the page she is holding is just barely in the shot.  ,H,0,1,MSR-VTT-videoTestVideo_video7547-shot1_0,Images/MSR-VTT-videoTestVideo_video7547-shot1_0/img0.jpg,Images/MSR-VTT-videoTestVideo_video7547-shot1_0/img4.jpg,Images/MSR-VTT-videoTestVideo_video7547-shot1_0/img14.jpg,Images/MSR-VTT-videoTestVideo_video7547-shot1_0/img15.jpg,Images/MSR-VTT-videoTestVideo_video7547-shot1_0/img16.jpg,Images/MSR-VTT-videoTestVideo_video7547-shot1_0/img19.jpg,Images/MSR-VTT-videoTestVideo_video7547-shot1_0/img20.jpg,Images/MSR-VTT-videoTestVideo_video7547-shot1_0/img21.jpg,Images/MSR-VTT-videoTestVideo_video7547-shot1_0/img22.jpg,Images/MSR-VTT-videoTestVideo_video7547-shot1_0/img25.jpg,1844,14,0,2022-06-18_09h44.51.987,annotation,2021.2.3,Win32,60.0024001,,
,,,,,,,,,,,,,,,,,0.512962963,0.162037037,1,0,0,23.5008,image_4,0,14,14,57,1,1790,A man laying on top of a tennis ball.,M,0,3,MSR-VTT-videoTestVideo_video7523-shot2_0,Images/MSR-VTT-videoTestVideo_video7523-shot2_0/img0.jpg,Images/MSR-VTT-videoTestVideo_video7523-shot2_0/img6.jpg,Images/MSR-VTT-videoTestVideo_video7523-shot2_0/img16.jpg,Images/MSR-VTT-videoTestVideo_video7523-shot2_0/img25.jpg,Images/MSR-VTT-videoTestVideo_video7523-shot2_0/img34.jpg,Images/MSR-VTT-videoTestVideo_video7523-shot2_0/img38.jpg,Images/MSR-VTT-videoTestVideo_video7523-shot2_0/img53.jpg,Images/MSR-VTT-videoTestVideo_video7523-shot2_0/img64.jpg,Images/MSR-VTT-videoTestVideo_video7523-shot2_0/img67.jpg,Images/MSR-VTT-videoTestVideo_video7523-shot2_0/img81.jpg,1514,14,0,2022-06-18_09h44.51.987,annotation,2021.2.3,Win32,60.0024001,,
,,,,,,,,,,,,,,,,,0.027777778,0.105555556,1,0,0,51.0065,image_2,0,15,15,19,1,471,The person in the lower right hand corner's hand is just barely touching the right hand side of the picture but his body is not fully visible.. ,H,0,4,MSR-VTT-videoTestVideo_video7622-shot4_1,Images/MSR-VTT-videoTestVideo_video7622-shot4_1/img39.jpg,Images/MSR-VTT-videoTestVideo_video7622-shot4_1/img43.jpg,Images/MSR-VTT-videoTestVideo_video7622-shot4_1/img54.jpg,Images/MSR-VTT-videoTestVideo_video7622-shot4_1/img60.jpg,Images/MSR-VTT-videoTestVideo_video7622-shot4_1/img61.jpg,Images/MSR-VTT-videoTestVideo_video7622-shot4_1/img66.jpg,Images/MSR-VTT-videoTestVideo_video7622-shot4_1/img71.jpg,Images/MSR-VTT-videoTestVideo_video7622-shot4_1/img80.jpg,Images/MSR-VTT-videoTestVideo_video7622-shot4_1/img82.jpg,Images/MSR-VTT-videoTestVideo_video7622-shot4_1/img87.jpg,1944,14,0,2022-06-18_09h44.51.987,annotation,2021.2.3,Win32,60.0024001,,
,,,,,,,,,,,,,,,,,-0.305555556,-0.14537037,1,0,0,19.2712,image_6,0,16,16,22,1,661,All but the very back of the bun on the back of the flannel wearing man is visible,H,0,5,MSR-VTT-videoTestVideo_video9758-shot2_1,Images/MSR-VTT-videoTestVideo_video9758-shot2_1/img34.jpg,Images/MSR-VTT-videoTestVideo_video9758-shot2_1/img39.jpg,Images/MSR-VTT-videoTestVideo_video9758-shot2_1/img47.jpg,Images/MSR-VTT-videoTestVideo_video9758-shot2_1/img50.jpg,Images/MSR-VTT-videoTestVideo_video9758-shot2_1/img54.jpg,Images/MSR-VTT-videoTestVideo_video9758-shot2_1/img57.jpg,Images/MSR-VTT-videoTestVideo_video9758-shot2_1/img59.jpg,Images/MSR-VTT-videoTestVideo_video9758-shot2_1/img66.jpg,Images/MSR-VTT-videoTestVideo_video9758-shot2_1/img69.jpg,Images/MSR-VTT-videoTestVideo_video9758-shot2_1/img72.jpg,321,14,0,2022-06-18_09h44.51.987,annotation,2021.2.3,Win32,60.0024001,,
,,,,,,,,,,,,,,,,,0.468518519,0.174074074,1,0,0,29.5381,image_4,0,17,17,47,1,1364,A man and woman standing next to each other on a pier.,M,0,7,video-storytelling-videowedding_de8dLXvgV-I-shot13_1,Images/video-storytelling-videowedding_de8dLXvgV-I-shot13_1/img30.jpg,Images/video-storytelling-videowedding_de8dLXvgV-I-shot13_1/img34.jpg,Images/video-storytelling-videowedding_de8dLXvgV-I-shot13_1/img40.jpg,Images/video-storytelling-videowedding_de8dLXvgV-I-shot13_1/img43.jpg,Images/video-storytelling-videowedding_de8dLXvgV-I-shot13_1/img48.jpg,Images/video-storytelling-videowedding_de8dLXvgV-I-shot13_1/img58.jpg,Images/video-storytelling-videowedding_de8dLXvgV-I-shot13_1/img62.jpg,Images/video-storytelling-videowedding_de8dLXvgV-I-shot13_1/img64.jpg,Images/video-storytelling-videowedding_de8dLXvgV-I-shot13_1/img65.jpg,Images/video-storytelling-videowedding_de8dLXvgV-I-shot13_1/img68.jpg,1229,14,0,2022-06-18_09h44.51.987,annotation,2021.2.3,Win32,60.0024001,,
,,,,,,,,,,,,,,,,,0.476851852,-0.10462963,1,0,0,18.7231,image_9,0,18,18,27,1,1617,A person is holding a plate of food on top of a plate.,M,0,7,MSR-VTT-videoTestVideo_video7321-shot1_3,Images/MSR-VTT-videoTestVideo_video7321-shot1_3/img281.jpg,Images/MSR-VTT-videoTestVideo_video7321-shot1_3/img288.jpg,Images/MSR-VTT-videoTestVideo_video7321-shot1_3/img293.jpg,Images/MSR-VTT-videoTestVideo_video7321-shot1_3/img314.jpg,Images/MSR-VTT-videoTestVideo_video7321-shot1_3/img316.jpg,Images/MSR-VTT-videoTestVideo_video7321-shot1_3/img325.jpg,Images/MSR-VTT-videoTestVideo_video7321-shot1_3/img328.jpg,Images/MSR-VTT-videoTestVideo_video7321-shot1_3/img331.jpg,Images/MSR-VTT-videoTestVideo_video7321-shot1_3/img345.jpg,Images/MSR-VTT-videoTestVideo_video7321-shot1_3/img347.jpg,86,14,0,2022-06-18_09h44.51.987,annotation,2021.2.3,Win32,60.0024001,,
,,,,,,,,,,,,,,,,,-0.226851852,-0.126851852,1,0,0,15.5228,image_6,0,19,19,8,1,1323,A dog that is wearing a red and white coat.,M,0,6,video-storytelling-videobirthday__amwPjAcoC8-shot75_0,Images/video-storytelling-videobirthday__amwPjAcoC8-shot75_0/img0.jpg,Images/video-storytelling-videobirthday__amwPjAcoC8-shot75_0/img2.jpg,Images/video-storytelling-videobirthday__amwPjAcoC8-shot75_0/img4.jpg,Images/video-storytelling-videobirthday__amwPjAcoC8-shot75_0/img8.jpg,Images/video-storytelling-videobirthday__amwPjAcoC8-shot75_0/img22.jpg,Images/video-storytelling-videobirthday__amwPjAcoC8-shot75_0/img38.jpg,Images/video-storytelling-videobirthday__amwPjAcoC8-shot75_0/img44.jpg,Images/video-storytelling-videobirthday__amwPjAcoC8-shot75_0/img52.jpg,Images/video-storytelling-videobirthday__amwPjAcoC8-shot75_0/img56.jpg,Images/video-storytelling-videobirthday__amwPjAcoC8-shot75_0/img59.jpg,30,14,0,2022-06-18_09h44.51.987,annotation,2021.2.3,Win32,60.0024001,,
,,,,,,,,,,,,,,,,,-0.264814815,0.151851852,1,0,0,36.9369,image_1,0,20,20,23,1,547,The sifter has been placed in the bowl and the person's hand is not visible. No other ingredients can be seen.,H,0,1,YouCook-video0008-shot1_1,Images/YouCook-video0008-shot1_1/img458.jpg,Images/YouCook-video0008-shot1_1/img498.jpg,Images/YouCook-video0008-shot1_1/img545.jpg,Images/YouCook-video0008-shot1_1/img553.jpg,Images/YouCook-video0008-shot1_1/img589.jpg,Images/YouCook-video0008-shot1_1/img603.jpg,Images/YouCook-video0008-shot1_1/img653.jpg,Images/YouCook-video0008-shot1_1/img692.jpg,Images/YouCook-video0008-shot1_1/img742.jpg,Images/YouCook-video0008-shot1_1/img763.jpg,1724,14,0,2022-06-18_09h44.51.987,annotation,2021.2.3,Win32,60.0024001,,
,,,,,,,,,,,,,,,,,-0.294444444,-0.160185185,1,0,0,74.2323,image_6,0,21,21,39,1,478,The clock on the right is showing a time five minutes past an hour and the bottom image has not quite reached even with the upper photo.,H,1,6,MSR-VTT-videoTestVideo_video8687-shot1_0,Images/MSR-VTT-videoTestVideo_video8687-shot1_0/img0.jpg,Images/MSR-VTT-videoTestVideo_video8687-shot1_0/img7.jpg,Images/MSR-VTT-videoTestVideo_video8687-shot1_0/img21.jpg,Images/MSR-VTT-videoTestVideo_video8687-shot1_0/img31.jpg,Images/MSR-VTT-videoTestVideo_video8687-shot1_0/img100.jpg,Images/MSR-VTT-videoTestVideo_video8687-shot1_0/img108.jpg,Images/MSR-VTT-videoTestVideo_video8687-shot1_0/img120.jpg,Images/MSR-VTT-videoTestVideo_video8687-shot1_0/img132.jpg,Images/MSR-VTT-videoTestVideo_video8687-shot1_0/img141.jpg,Images/MSR-VTT-videoTestVideo_video8687-shot1_0/img150.jpg,1078,14,0,2022-06-18_09h44.51.987,annotation,2021.2.3,Win32,60.0024001,,
,,,,,,,,,,,,,,,,,-0.517592593,-0.108333333,1,0,0,15.8524,image_5,0,22,22,20,1,707,The two players at left have their butts very close together but not touching or overlapping..,H,0,5,MSR-VTT-videoTestVideo_video9823-shot3_1,Images/MSR-VTT-videoTestVideo_video9823-shot3_1/img17.jpg,Images/MSR-VTT-videoTestVideo_video9823-shot3_1/img18.jpg,Images/MSR-VTT-videoTestVideo_video9823-shot3_1/img19.jpg,Images/MSR-VTT-videoTestVideo_video9823-shot3_1/img20.jpg,Images/MSR-VTT-videoTestVideo_video9823-shot3_1/img21.jpg,Images/MSR-VTT-videoTestVideo_video9823-shot3_1/img24.jpg,Images/MSR-VTT-videoTestVideo_video9823-shot3_1/img27.jpg,Images/MSR-VTT-videoTestVideo_video9823-shot3_1/img28.jpg,Images/MSR-VTT-videoTestVideo_video9823-shot3_1/img30.jpg,Images/MSR-VTT-videoTestVideo_video9823-shot3_1/img31.jpg,227,14,0,2022-06-18_09h44.51.987,annotation,2021.2.3,Win32,60.0024001,,
,,,,,,,,,,,,,,,,,-0.003703704,-0.112962963,1,0,0,37.7305,image_7,0,23,23,7,1,1273,A girl wearing a blue skull helmet is wearing a helmet.,M,0,1,video-storytelling-videobirthday__amwPjAcoC8-shot79_1,Images/video-storytelling-videobirthday__amwPjAcoC8-shot79_1/img35.jpg,Images/video-storytelling-videobirthday__amwPjAcoC8-shot79_1/img38.jpg,Images/video-storytelling-videobirthday__amwPjAcoC8-shot79_1/img43.jpg,Images/video-storytelling-videobirthday__amwPjAcoC8-shot79_1/img49.jpg,Images/video-storytelling-videobirthday__amwPjAcoC8-shot79_1/img54.jpg,Images/video-storytelling-videobirthday__amwPjAcoC8-shot79_1/img59.jpg,Images/video-storytelling-videobirthday__amwPjAcoC8-shot79_1/img62.jpg,Images/video-storytelling-videobirthday__amwPjAcoC8-shot79_1/img71.jpg,Images/video-storytelling-videobirthday__amwPjAcoC8-shot79_1/img77.jpg,Images/video-storytelling-videobirthday__amwPjAcoC8-shot79_1/img80.jpg,1897,14,0,2022-06-18_09h44.51.987,annotation,2021.2.3,Win32,60.0024001,,
,,,,,,,,,,,,,,,,,-0.034259259,-0.159259259,1,0,0,24.3285,image_7,0,24,24,1,1,284,the child's reaching hand is roughly level with where his chin would be,H,0,7,video-storytelling-videobirthday__amwPjAcoC8-shot73_1,Images/video-storytelling-videobirthday__amwPjAcoC8-shot73_1/img49.jpg,Images/video-storytelling-videobirthday__amwPjAcoC8-shot73_1/img54.jpg,Images/video-storytelling-videobirthday__amwPjAcoC8-shot73_1/img59.jpg,Images/video-storytelling-videobirthday__amwPjAcoC8-shot73_1/img64.jpg,Images/video-storytelling-videobirthday__amwPjAcoC8-shot73_1/img67.jpg,Images/video-storytelling-videobirthday__amwPjAcoC8-shot73_1/img69.jpg,Images/video-storytelling-videobirthday__amwPjAcoC8-shot73_1/img71.jpg,Images/video-storytelling-videobirthday__amwPjAcoC8-shot73_1/img75.jpg,Images/video-storytelling-videobirthday__amwPjAcoC8-shot73_1/img78.jpg,Images/video-storytelling-videobirthday__amwPjAcoC8-shot73_1/img80.jpg,249,14,0,2022-06-18_09h44.51.987,annotation,2021.2.3,Win32,60.0024001,,
,,,,,,,,,,,,,,,,,0.496296296,-0.157407407,1,0,0,44.4076,image_9,0,25,25,25,1,1159,A close up of a woman in a white dress.,M,1,5,MSR-VTT-videoTestVideo_video8589-shot1_0,Images/MSR-VTT-videoTestVideo_video8589-shot1_0/img0.jpg,Images/MSR-VTT-videoTestVideo_video8589-shot1_0/img6.jpg,Images/MSR-VTT-videoTestVideo_video8589-shot1_0/img25.jpg,Images/MSR-VTT-videoTestVideo_video8589-shot1_0/img71.jpg,Images/MSR-VTT-videoTestVideo_video8589-shot1_0/img105.jpg,Images/MSR-VTT-videoTestVideo_video8589-shot1_0/img111.jpg,Images/MSR-VTT-videoTestVideo_video8589-shot1_0/img116.jpg,Images/MSR-VTT-videoTestVideo_video8589-shot1_0/img127.jpg,Images/MSR-VTT-videoTestVideo_video8589-shot1_0/img135.jpg,Images/MSR-VTT-videoTestVideo_video8589-shot1_0/img172.jpg,1725,14,0,2022-06-18_09h44.51.987,annotation,2021.2.3,Win32,60.0024001,,
,,,,,,,,,,,,,,,,,-0.009259259,-0.15462963,1,0,0,27.4012,image_7,0,26,26,9,1,0,the transition image into the one of the lady in blue from the one where bags where hang up,H,0,7,MSR-VTT-videoTestVideo_video7047-shot1_0,Images/MSR-VTT-videoTestVideo_video7047-shot1_0/img0.jpg,Images/MSR-VTT-videoTestVideo_video7047-shot1_0/img1.jpg,Images/MSR-VTT-videoTestVideo_video7047-shot1_0/img27.jpg,Images/MSR-VTT-videoTestVideo_video7047-shot1_0/img32.jpg,Images/MSR-VTT-videoTestVideo_video7047-shot1_0/img33.jpg,Images/MSR-VTT-videoTestVideo_video7047-shot1_0/img39.jpg,Images/MSR-VTT-videoTestVideo_video7047-shot1_0/img82.jpg,Images/MSR-VTT-videoTestVideo_video7047-shot1_0/img112.jpg,Images/MSR-VTT-videoTestVideo_video7047-shot1_0/img113.jpg,Images/MSR-VTT-videoTestVideo_video7047-shot1_0/img123.jpg,1482,14,0,2022-06-18_09h44.51.987,annotation,2021.2.3,Win32,60.0024001,,
,,,,,,,,,,,,,,,,,-0.240740741,0.082407407,1,0,0,19.6409,image_1,0,27,27,2,1,819,A person is in the foreground of a blurry black and white image in the bottom right corner,H,0,1,MSR-VTT-videoTestVideo_video7622-shot4_0,Images/MSR-VTT-videoTestVideo_video7622-shot4_0/img0.jpg,Images/MSR-VTT-videoTestVideo_video7622-shot4_0/img1.jpg,Images/MSR-VTT-videoTestVideo_video7622-shot4_0/img3.jpg,Images/MSR-VTT-videoTestVideo_video7622-shot4_0/img6.jpg,Images/MSR-VTT-videoTestVideo_video7622-shot4_0/img12.jpg,Images/MSR-VTT-videoTestVideo_video7622-shot4_0/img23.jpg,Images/MSR-VTT-videoTestVideo_video7622-shot4_0/img27.jpg,Images/MSR-VTT-videoTestVideo_video7622-shot4_0/img31.jpg,Images/MSR-VTT-videoTestVideo_video7622-shot4_0/img32.jpg,Images/MSR-VTT-videoTestVideo_video7622-shot4_0/img38.jpg,1278,14,0,2022-06-18_09h44.51.987,annotation,2021.2.3,Win32,60.0024001,,
,,,,,,,,,,,,,,,,,0.444444444,-0.118518519,1,0,0,31.4808,image_9,0,28,28,0,1,1930,A box of doughnuts shaped like a heart shaped heart shaped heart shaped heart shaped heart shaped heart shaped heart shaped heart shaped heart shaped heart shaped heart shaped heart shaped heart shaped heart shaped heart shaped heart shaped heart shaped heart shaped heart shaped heart shaped heart shaped heart shaped heart shaped heart shaped heart shaped heart shaped heart shaped heart shaped heart shaped heart,M,0,9,video-storytelling-videobirthday_fwpYnUDbusw-shot18_9,Images/video-storytelling-videobirthday_fwpYnUDbusw-shot18_9/img432.jpg,Images/video-storytelling-videobirthday_fwpYnUDbusw-shot18_9/img434.jpg,Images/video-storytelling-videobirthday_fwpYnUDbusw-shot18_9/img435.jpg,Images/video-storytelling-videobirthday_fwpYnUDbusw-shot18_9/img438.jpg,Images/video-storytelling-videobirthday_fwpYnUDbusw-shot18_9/img442.jpg,Images/video-storytelling-videobirthday_fwpYnUDbusw-shot18_9/img449.jpg,Images/video-storytelling-videobirthday_fwpYnUDbusw-shot18_9/img456.jpg,Images/video-storytelling-videobirthday_fwpYnUDbusw-shot18_9/img461.jpg,Images/video-storytelling-videobirthday_fwpYnUDbusw-shot18_9/img463.jpg,Images/video-storytelling-videobirthday_fwpYnUDbusw-shot18_9/img469.jpg,1419,14,0,2022-06-18_09h44.51.987,annotation,2021.2.3,Win32,60.0024001,,
,,,,,,,,,,,,,,,,,0.251851852,-0.14537037,1,0,0,23.7226,image_8,0,29,29,41,1,1285,A couple of men sitting at a table with food.,M,0,5,MSR-VTT-videoTestVideo_video9327-shot1_0,Images/MSR-VTT-videoTestVideo_video9327-shot1_0/img0.jpg,Images/MSR-VTT-videoTestVideo_video9327-shot1_0/img3.jpg,Images/MSR-VTT-videoTestVideo_video9327-shot1_0/img26.jpg,Images/MSR-VTT-videoTestVideo_video9327-shot1_0/img31.jpg,Images/MSR-VTT-videoTestVideo_video9327-shot1_0/img39.jpg,Images/MSR-VTT-videoTestVideo_video9327-shot1_0/img43.jpg,Images/MSR-VTT-videoTestVideo_video9327-shot1_0/img46.jpg,Images/MSR-VTT-videoTestVideo_video9327-shot1_0/img48.jpg,Images/MSR-VTT-videoTestVideo_video9327-shot1_0/img53.jpg,Images/MSR-VTT-videoTestVideo_video9327-shot1_0/img61.jpg,629,14,0,2022-06-18_09h44.51.987,annotation,2021.2.3,Win32,60.0024001,,
,,,,,,,,,,,,,,,,,0.498148148,0.181481481,1,0,0,40.1411,image_4,0,30,30,14,1,565,Right spoon is above bowl slightly but has a green leaf stuck to the center of the spoon and that piece touches the top of the picture.,H,0,4,YouCook-video0083-shot15_2,Images/YouCook-video0083-shot15_2/img82.jpg,Images/YouCook-video0083-shot15_2/img85.jpg,Images/YouCook-video0083-shot15_2/img94.jpg,Images/YouCook-video0083-shot15_2/img96.jpg,Images/YouCook-video0083-shot15_2/img106.jpg,Images/YouCook-video0083-shot15_2/img118.jpg,Images/YouCook-video0083-shot15_2/img122.jpg,Images/YouCook-video0083-shot15_2/img124.jpg,Images/YouCook-video0083-shot15_2/img128.jpg,Images/YouCook-video0083-shot15_2/img143.jpg,1503,14,0,2022-06-18_09h44.51.987,annotation,2021.2.3,Win32,60.0024001,,
,,,,,,,,,,,,,,,,,0.257407407,-0.153703704,1,0,0,29.9489,image_8,0,31,31,43,1,697,Can see both people's legs. Girl with mouth open looking in direction of dashbaord,H,0,5,MSR-VTT-videoTestVideo_video8971-shot0_0,Images/MSR-VTT-videoTestVideo_video8971-shot0_0/img0.jpg,Images/MSR-VTT-videoTestVideo_video8971-shot0_0/img12.jpg,Images/MSR-VTT-videoTestVideo_video8971-shot0_0/img23.jpg,Images/MSR-VTT-videoTestVideo_video8971-shot0_0/img30.jpg,Images/MSR-VTT-videoTestVideo_video8971-shot0_0/img31.jpg,Images/MSR-VTT-videoTestVideo_video8971-shot0_0/img33.jpg,Images/MSR-VTT-videoTestVideo_video8971-shot0_0/img37.jpg,Images/MSR-VTT-videoTestVideo_video8971-shot0_0/img43.jpg,Images/MSR-VTT-videoTestVideo_video8971-shot0_0/img52.jpg,Images/MSR-VTT-videoTestVideo_video8971-shot0_0/img54.jpg,787,14,0,2022-06-18_09h44.51.987,annotation,2021.2.3,Win32,60.0024001,,
,,,,,,,,,,,,,,,,,0.508333333,-0.12962963,1,0,0,4.5348,image_9,0,32,32,60,1,2,Green type writer with a red tape. ,H,,9,open-images-531_0dd4eb59d465a8be,Checks/check3/open-images-503_1ccd6fa641154ebbimg7.jpg,Checks/check3/open-images-1852_00faf52058ad28b8img4.jpg,Checks/check3/open-images-386_1b2e28d6d994603eimg1.jpg,Checks/check3/open-images-471_1121e9f97c200ac0img8.jpg,Checks/check3/open-images-1886_3db71eaddb618934img8.jpg,Checks/check3/open-images-1696_20a4ebf0c0f76b05img6.jpg,Checks/check3/open-images-2447_128483a48e1552f4img6.jpg,Checks/check3/open-images-2994_9965cbf8aa20bda0img2.jpg,Checks/check3/open-images-1068_03d63613107970b3img6.jpg,Checks/check3/open-images-531_0dd4eb59d465a8beimg9.jpg,,,1,2022-06-18_09h44.51.987,annotation,2021.2.3,Win32,60.0024001,,
,,,,,,,,,,,,,,,,,0.016666667,0.163888889,1,0,0,1.7991,image_2,0,33,33,58,1,0,Pair of black gloves,H,,2,open-images-510_3a241cb30d6e5319,Checks/check1/open-images-225_1442c0d0ef23d58bimg3.jpg,Checks/check1/open-images-2759_3a42708fe77398b7img8.jpg,Checks/check1/open-images-510_3a241cb30d6e5319img2.jpg,Checks/check1/open-images-2209_02c98146fb93ff17img1.jpg,Checks/check1/open-images-1553_0f128317e56a9d2fimg9.jpg,Checks/check1/open-images-2666_044d7c6d11e6b493img8.jpg,Checks/check1/open-images-2880_159294646083f545img4.jpg,Checks/check1/open-images-609_2dc0baa993a2bd25img5.jpg,Checks/check1/open-images-1854_2b15616b4f1080e7img2.jpg,Checks/check1/open-images-1435_1b0ce31951048765img8.jpg,,,1,2022-06-18_09h44.51.987,annotation,2021.2.3,Win32,60.0024001,,
,,,,,,,,,,,,,,,,,0.534259259,-0.082407407,1,0,0,19.0332,image_9,0,34,34,26,1,2076,A blurry image of a man with a bag on his head.,M,0,9,MSR-VTT-videoTestVideo_video8595-shot1_0,Images/MSR-VTT-videoTestVideo_video8595-shot1_0/img0.jpg,Images/MSR-VTT-videoTestVideo_video8595-shot1_0/img1.jpg,Images/MSR-VTT-videoTestVideo_video8595-shot1_0/img9.jpg,Images/MSR-VTT-videoTestVideo_video8595-shot1_0/img16.jpg,Images/MSR-VTT-videoTestVideo_video8595-shot1_0/img22.jpg,Images/MSR-VTT-videoTestVideo_video8595-shot1_0/img71.jpg,Images/MSR-VTT-videoTestVideo_video8595-shot1_0/img81.jpg,Images/MSR-VTT-videoTestVideo_video8595-shot1_0/img86.jpg,Images/MSR-VTT-videoTestVideo_video8595-shot1_0/img91.jpg,Images/MSR-VTT-videoTestVideo_video8595-shot1_0/img92.jpg,1428,14,0,2022-06-18_09h44.51.987,annotation,2021.2.3,Win32,60.0024001,,
,,,,,,,,,,,,,,,,,0.225925926,-0.086111111,1,0,0,27.6693,image_8,0,35,35,6,1,675,"The standing woman is cut off above the tip of her nose. You can see her mouth, but not her eyes.",H,0,8,video-storytelling-videobirthday_fwpYnUDbusw-shot9_1,Images/video-storytelling-videobirthday_fwpYnUDbusw-shot9_1/img63.jpg,Images/video-storytelling-videobirthday_fwpYnUDbusw-shot9_1/img67.jpg,Images/video-storytelling-videobirthday_fwpYnUDbusw-shot9_1/img78.jpg,Images/video-storytelling-videobirthday_fwpYnUDbusw-shot9_1/img86.jpg,Images/video-storytelling-videobirthday_fwpYnUDbusw-shot9_1/img94.jpg,Images/video-storytelling-videobirthday_fwpYnUDbusw-shot9_1/img99.jpg,Images/video-storytelling-videobirthday_fwpYnUDbusw-shot9_1/img106.jpg,Images/video-storytelling-videobirthday_fwpYnUDbusw-shot9_1/img111.jpg,Images/video-storytelling-videobirthday_fwpYnUDbusw-shot9_1/img119.jpg,Images/video-storytelling-videobirthday_fwpYnUDbusw-shot9_1/img123.jpg,1028,14,0,2022-06-18_09h44.51.987,annotation,2021.2.3,Win32,60.0024001,,
,,,,,,,,,,,,,,,,,0.219444444,-0.175925926,1,0,0,45.6084,image_8,0,36,36,31,1,1151,A person walking around with a skateboard in the air.,M,0,3,MSR-VTT-videoTestVideo_video7522-shot4_3,Images/MSR-VTT-videoTestVideo_video7522-shot4_3/img100.jpg,Images/MSR-VTT-videoTestVideo_video7522-shot4_3/img102.jpg,Images/MSR-VTT-videoTestVideo_video7522-shot4_3/img104.jpg,Images/MSR-VTT-videoTestVideo_video7522-shot4_3/img107.jpg,Images/MSR-VTT-videoTestVideo_video7522-shot4_3/img112.jpg,Images/MSR-VTT-videoTestVideo_video7522-shot4_3/img115.jpg,Images/MSR-VTT-videoTestVideo_video7522-shot4_3/img121.jpg,Images/MSR-VTT-videoTestVideo_video7522-shot4_3/img122.jpg,Images/MSR-VTT-videoTestVideo_video7522-shot4_3/img126.jpg,Images/MSR-VTT-videoTestVideo_video7522-shot4_3/img127.jpg,1605,14,0,2022-06-18_09h44.51.987,annotation,2021.2.3,Win32,60.0024001,,
,,,,,,,,,,,,,,,,,0.212037037,0.149074074,1,0,0,41.7602,image_3,0,37,37,42,1,1310,A person holding a plate of food on a table.,M,0,5,video-storytelling-videocamping_dBXYM3dQTSo-shot69_5,Images/video-storytelling-videocamping_dBXYM3dQTSo-shot69_5/img256.jpg,Images/video-storytelling-videocamping_dBXYM3dQTSo-shot69_5/img262.jpg,Images/video-storytelling-videocamping_dBXYM3dQTSo-shot69_5/img265.jpg,Images/video-storytelling-videocamping_dBXYM3dQTSo-shot69_5/img269.jpg,Images/video-storytelling-videocamping_dBXYM3dQTSo-shot69_5/img272.jpg,Images/video-storytelling-videocamping_dBXYM3dQTSo-shot69_5/img274.jpg,Images/video-storytelling-videocamping_dBXYM3dQTSo-shot69_5/img278.jpg,Images/video-storytelling-videocamping_dBXYM3dQTSo-shot69_5/img279.jpg,Images/video-storytelling-videocamping_dBXYM3dQTSo-shot69_5/img280.jpg,Images/video-storytelling-videocamping_dBXYM3dQTSo-shot69_5/img282.jpg,1704,14,0,2022-06-18_09h44.51.987,annotation,2021.2.3,Win32,60.0024001,,
,,,,,,,,,,,,,,,,,0.513888889,-0.113888889,1,0,0,14.0401,image_9,0,38,38,28,1,1272,A woman is holding a flip-flop on her head.,M,0,0,video-storytelling-videobirthday__amwPjAcoC8-shot79_1,Images/video-storytelling-videobirthday__amwPjAcoC8-shot79_1/img35.jpg,Images/video-storytelling-videobirthday__amwPjAcoC8-shot79_1/img38.jpg,Images/video-storytelling-videobirthday__amwPjAcoC8-shot79_1/img43.jpg,Images/video-storytelling-videobirthday__amwPjAcoC8-shot79_1/img49.jpg,Images/video-storytelling-videobirthday__amwPjAcoC8-shot79_1/img54.jpg,Images/video-storytelling-videobirthday__amwPjAcoC8-shot79_1/img59.jpg,Images/video-storytelling-videobirthday__amwPjAcoC8-shot79_1/img62.jpg,Images/video-storytelling-videobirthday__amwPjAcoC8-shot79_1/img71.jpg,Images/video-storytelling-videobirthday__amwPjAcoC8-shot79_1/img77.jpg,Images/video-storytelling-videobirthday__amwPjAcoC8-shot79_1/img80.jpg,178,14,0,2022-06-18_09h44.51.987,annotation,2021.2.3,Win32,60.0024001,,
,,,,,,,,,,,,,,,,,0.239814815,-0.123148148,1,0,0,42.8884,image_8,0,39,39,15,1,1482,A person is holding a banana in their hand.,M,0,6,MSR-VTT-videoTestVideo_video7739-shot1_1,Images/MSR-VTT-videoTestVideo_video7739-shot1_1/img88.jpg,Images/MSR-VTT-videoTestVideo_video7739-shot1_1/img125.jpg,Images/MSR-VTT-videoTestVideo_video7739-shot1_1/img131.jpg,Images/MSR-VTT-videoTestVideo_video7739-shot1_1/img151.jpg,Images/MSR-VTT-videoTestVideo_video7739-shot1_1/img156.jpg,Images/MSR-VTT-videoTestVideo_video7739-shot1_1/img167.jpg,Images/MSR-VTT-videoTestVideo_video7739-shot1_1/img175.jpg,Images/MSR-VTT-videoTestVideo_video7739-shot1_1/img177.jpg,Images/MSR-VTT-videoTestVideo_video7739-shot1_1/img179.jpg,Images/MSR-VTT-videoTestVideo_video7739-shot1_1/img203.jpg,374,14,0,2022-06-18_09h44.51.987,annotation,2021.2.3,Win32,60.0024001,,
,,,,,,,,,,,,,,,,,0,-0.126851852,1,0,0,31.3298,image_7,0,40,40,55,1,911,Both the bride and groom are smiling and looking to their left,H,0,6,video-storytelling-videowedding_Bp8t824h5NE-shot69_1,Images/video-storytelling-videowedding_Bp8t824h5NE-shot69_1/img227.jpg,Images/video-storytelling-videowedding_Bp8t824h5NE-shot69_1/img250.jpg,Images/video-storytelling-videowedding_Bp8t824h5NE-shot69_1/img275.jpg,Images/video-storytelling-videowedding_Bp8t824h5NE-shot69_1/img323.jpg,Images/video-storytelling-videowedding_Bp8t824h5NE-shot69_1/img428.jpg,Images/video-storytelling-videowedding_Bp8t824h5NE-shot69_1/img477.jpg,Images/video-storytelling-videowedding_Bp8t824h5NE-shot69_1/img492.jpg,Images/video-storytelling-videowedding_Bp8t824h5NE-shot69_1/img540.jpg,Images/video-storytelling-videowedding_Bp8t824h5NE-shot69_1/img565.jpg,Images/video-storytelling-videowedding_Bp8t824h5NE-shot69_1/img602.jpg,1547,14,0,2022-06-18_09h44.51.987,annotation,2021.2.3,Win32,60.0024001,,
,,,,,,,,,,,,,,,,,-0.248148148,-0.171296296,1,0,0,13.6833,image_6,0,41,41,34,1,318,"Man faces directly forward with head level, with no hands visible.",H,0,6,MSR-VTT-videoTestVideo_video8771-shot0_0,Images/MSR-VTT-videoTestVideo_video8771-shot0_0/img0.jpg,Images/MSR-VTT-videoTestVideo_video8771-shot0_0/img5.jpg,Images/MSR-VTT-videoTestVideo_video8771-shot0_0/img6.jpg,Images/MSR-VTT-videoTestVideo_video8771-shot0_0/img7.jpg,Images/MSR-VTT-videoTestVideo_video8771-shot0_0/img9.jpg,Images/MSR-VTT-videoTestVideo_video8771-shot0_0/img11.jpg,Images/MSR-VTT-videoTestVideo_video8771-shot0_0/img13.jpg,Images/MSR-VTT-videoTestVideo_video8771-shot0_0/img15.jpg,Images/MSR-VTT-videoTestVideo_video8771-shot0_0/img17.jpg,Images/MSR-VTT-videoTestVideo_video8771-shot0_0/img22.jpg,2004,14,0,2022-06-18_09h44.51.987,annotation,2021.2.3,Win32,60.0024001,,
,,,,,,,,,,,,,,,,,0.472222222,0.144444444,1,0,0,12.7303,image_4,0,42,42,52,1,1919,A young child is sitting in front of a Christmas tree.,M,0,0,video-storytelling-videochristmas_5RR_sRzKODA-shot20_13,Images/video-storytelling-videochristmas_5RR_sRzKODA-shot20_13/img633.jpg,Images/video-storytelling-videochristmas_5RR_sRzKODA-shot20_13/img642.jpg,Images/video-storytelling-videochristmas_5RR_sRzKODA-shot20_13/img646.jpg,Images/video-storytelling-videochristmas_5RR_sRzKODA-shot20_13/img650.jpg,Images/video-storytelling-videochristmas_5RR_sRzKODA-shot20_13/img658.jpg,Images/video-storytelling-videochristmas_5RR_sRzKODA-shot20_13/img664.jpg,Images/video-storytelling-videochristmas_5RR_sRzKODA-shot20_13/img670.jpg,Images/video-storytelling-videochristmas_5RR_sRzKODA-shot20_13/img679.jpg,Images/video-storytelling-videochristmas_5RR_sRzKODA-shot20_13/img682.jpg,Images/video-storytelling-videochristmas_5RR_sRzKODA-shot20_13/img684.jpg,782,14,0,2022-06-18_09h44.51.987,annotation,2021.2.3,Win32,60.0024001,,
,,,,,,,,,,,,,,,,,0.538888889,-0.134259259,1,0,0,11.8801,image_9,0,43,43,17,1,1469,A man holding a cell phone in his hand.,M,0,4,video-storytelling-videocamping_EytINruY3-U-shot60_0,Images/video-storytelling-videocamping_EytINruY3-U-shot60_0/img0.jpg,Images/video-storytelling-videocamping_EytINruY3-U-shot60_0/img36.jpg,Images/video-storytelling-videocamping_EytINruY3-U-shot60_0/img54.jpg,Images/video-storytelling-videocamping_EytINruY3-U-shot60_0/img130.jpg,Images/video-storytelling-videocamping_EytINruY3-U-shot60_0/img136.jpg,Images/video-storytelling-videocamping_EytINruY3-U-shot60_0/img275.jpg,Images/video-storytelling-videocamping_EytINruY3-U-shot60_0/img281.jpg,Images/video-storytelling-videocamping_EytINruY3-U-shot60_0/img319.jpg,Images/video-storytelling-videocamping_EytINruY3-U-shot60_0/img344.jpg,Images/video-storytelling-videocamping_EytINruY3-U-shot60_0/img355.jpg,1916,14,0,2022-06-18_09h44.51.987,annotation,2021.2.3,Win32,60.0024001,,
,,,,,,,,,,,,,,,,,-0.530555556,0.123148148,1,0,0,16.1227,image_0,0,44,44,33,1,1113,A person standing in the middle of a room.,M,0,0,MSR-VTT-videoTestVideo_video7465-shot7_0,Images/MSR-VTT-videoTestVideo_video7465-shot7_0/img0.jpg,Images/MSR-VTT-videoTestVideo_video7465-shot7_0/img1.jpg,Images/MSR-VTT-videoTestVideo_video7465-shot7_0/img2.jpg,Images/MSR-VTT-videoTestVideo_video7465-shot7_0/img3.jpg,Images/MSR-VTT-videoTestVideo_video7465-shot7_0/img7.jpg,Images/MSR-VTT-videoTestVideo_video7465-shot7_0/img11.jpg,Images/MSR-VTT-videoTestVideo_video7465-shot7_0/img16.jpg,Images/MSR-VTT-videoTestVideo_video7465-shot7_0/img21.jpg,Images/MSR-VTT-videoTestVideo_video7465-shot7_0/img26.jpg,Images/MSR-VTT-videoTestVideo_video7465-shot7_0/img30.jpg,46,14,0,2022-06-18_09h44.51.987,annotation,2021.2.3,Win32,60.0024001,,
,,,,,,,,,,,,,,,,,0.512962963,-0.141666667,1,0,0,16.8808,image_9,0,45,45,10,1,1764,Two men standing next to each other in a room.,M,1,2,MSR-VTT-videoTestVideo_video9579-shot1_0,Images/MSR-VTT-videoTestVideo_video9579-shot1_0/img0.jpg,Images/MSR-VTT-videoTestVideo_video9579-shot1_0/img7.jpg,Images/MSR-VTT-videoTestVideo_video9579-shot1_0/img29.jpg,Images/MSR-VTT-videoTestVideo_video9579-shot1_0/img36.jpg,Images/MSR-VTT-videoTestVideo_video9579-shot1_0/img51.jpg,Images/MSR-VTT-videoTestVideo_video9579-shot1_0/img84.jpg,Images/MSR-VTT-videoTestVideo_video9579-shot1_0/img98.jpg,Images/MSR-VTT-videoTestVideo_video9579-shot1_0/img125.jpg,Images/MSR-VTT-videoTestVideo_video9579-shot1_0/img151.jpg,Images/MSR-VTT-videoTestVideo_video9579-shot1_0/img197.jpg,44,14,0,2022-06-18_09h44.51.987,annotation,2021.2.3,Win32,60.0024001,,
,,,,,,,,,,,,,,,,,0.234259259,0.15,1,0,0,8.9875,image_3,0,46,46,21,1,240,There is a picture of a package of rolls in the center. The boy in the white shirt is holding up a sandwich.,H,0,4,MSR-VTT-videoTestVideo_video9327-shot1_0,Images/MSR-VTT-videoTestVideo_video9327-shot1_0/img0.jpg,Images/MSR-VTT-videoTestVideo_video9327-shot1_0/img3.jpg,Images/MSR-VTT-videoTestVideo_video9327-shot1_0/img26.jpg,Images/MSR-VTT-videoTestVideo_video9327-shot1_0/img31.jpg,Images/MSR-VTT-videoTestVideo_video9327-shot1_0/img39.jpg,Images/MSR-VTT-videoTestVideo_video9327-shot1_0/img43.jpg,Images/MSR-VTT-videoTestVideo_video9327-shot1_0/img46.jpg,Images/MSR-VTT-videoTestVideo_video9327-shot1_0/img48.jpg,Images/MSR-VTT-videoTestVideo_video9327-shot1_0/img53.jpg,Images/MSR-VTT-videoTestVideo_video9327-shot1_0/img61.jpg,1627,14,0,2022-06-18_09h44.51.987,annotation,2021.2.3,Win32,60.0024001,,
,,,,,,,,,,,,,,,,,-0.235185185,-0.160185185,1,0,0,18.4786,image_6,0,47,47,36,1,347,The big spoon is touching the rim of the ice cream container. There is no overlay.,H,1,6,MSR-VTT-videoTestVideo_video9229-shot0_0,Images/MSR-VTT-videoTestVideo_video9229-shot0_0/img0.jpg,Images/MSR-VTT-videoTestVideo_video9229-shot0_0/img9.jpg,Images/MSR-VTT-videoTestVideo_video9229-shot0_0/img11.jpg,Images/MSR-VTT-videoTestVideo_video9229-shot0_0/img13.jpg,Images/MSR-VTT-videoTestVideo_video9229-shot0_0/img16.jpg,Images/MSR-VTT-videoTestVideo_video9229-shot0_0/img18.jpg,Images/MSR-VTT-videoTestVideo_video9229-shot0_0/img21.jpg,Images/MSR-VTT-videoTestVideo_video9229-shot0_0/img45.jpg,Images/MSR-VTT-videoTestVideo_video9229-shot0_0/img87.jpg,Images/MSR-VTT-videoTestVideo_video9229-shot0_0/img105.jpg,1185,14,0,2022-06-18_09h44.51.987,annotation,2021.2.3,Win32,60.0024001,,
,,,,,,,,,,,,,,,,,0.478703704,0.160185185,1,0,0,10.7333,image_4,0,48,48,48,1,1585,A couple of people on a boat in the water.,M,0,6,MSR-VTT-videoTestVideo_video7473-shot11_3,Images/MSR-VTT-videoTestVideo_video7473-shot11_3/img102.jpg,Images/MSR-VTT-videoTestVideo_video7473-shot11_3/img105.jpg,Images/MSR-VTT-videoTestVideo_video7473-shot11_3/img107.jpg,Images/MSR-VTT-videoTestVideo_video7473-shot11_3/img110.jpg,Images/MSR-VTT-videoTestVideo_video7473-shot11_3/img114.jpg,Images/MSR-VTT-videoTestVideo_video7473-shot11_3/img118.jpg,Images/MSR-VTT-videoTestVideo_video7473-shot11_3/img128.jpg,Images/MSR-VTT-videoTestVideo_video7473-shot11_3/img132.jpg,Images/MSR-VTT-videoTestVideo_video7473-shot11_3/img138.jpg,Images/MSR-VTT-videoTestVideo_video7473-shot11_3/img143.jpg,1535,14,0,2022-06-18_09h44.51.987,annotation,2021.2.3,Win32,60.0024001,,
,,,,,,,,,,,,,,,,,0.297222222,0.160185185,1,0,0,9.29,image_3,0,49,49,44,1,319,You can see the dog's tail completely for the first time.,H,0,3,MSR-VTT-videoTestVideo_video8220-shot1_0,Images/MSR-VTT-videoTestVideo_video8220-shot1_0/img0.jpg,Images/MSR-VTT-videoTestVideo_video8220-shot1_0/img1.jpg,Images/MSR-VTT-videoTestVideo_video8220-shot1_0/img4.jpg,Images/MSR-VTT-videoTestVideo_video8220-shot1_0/img7.jpg,Images/MSR-VTT-videoTestVideo_video8220-shot1_0/img9.jpg,Images/MSR-VTT-videoTestVideo_video8220-shot1_0/img11.jpg,Images/MSR-VTT-videoTestVideo_video8220-shot1_0/img12.jpg,Images/MSR-VTT-videoTestVideo_video8220-shot1_0/img14.jpg,Images/MSR-VTT-videoTestVideo_video8220-shot1_0/img19.jpg,Images/MSR-VTT-videoTestVideo_video8220-shot1_0/img20.jpg,636,14,0,2022-06-18_09h44.51.987,annotation,2021.2.3,Win32,60.0024001,,
,,,,,,,,,,,,,,,,,0.007407407,0.152777778,1,0,0,15.7863,image_2,0,50,50,29,1,1521,A picture of a plane with a clock on it.,M,0,4,MSR-VTT-videoTestVideo_video8687-shot1_0,Images/MSR-VTT-videoTestVideo_video8687-shot1_0/img0.jpg,Images/MSR-VTT-videoTestVideo_video8687-shot1_0/img7.jpg,Images/MSR-VTT-videoTestVideo_video8687-shot1_0/img21.jpg,Images/MSR-VTT-videoTestVideo_video8687-shot1_0/img31.jpg,Images/MSR-VTT-videoTestVideo_video8687-shot1_0/img100.jpg,Images/MSR-VTT-videoTestVideo_video8687-shot1_0/img108.jpg,Images/MSR-VTT-videoTestVideo_video8687-shot1_0/img120.jpg,Images/MSR-VTT-videoTestVideo_video8687-shot1_0/img132.jpg,Images/MSR-VTT-videoTestVideo_video8687-shot1_0/img141.jpg,Images/MSR-VTT-videoTestVideo_video8687-shot1_0/img150.jpg,1922,14,0,2022-06-18_09h44.51.987,annotation,2021.2.3,Win32,60.0024001,,
,,,,,,,,,,,,,,,,,-0.024074074,0.164814815,1,0,0,7.6567,image_2,0,51,51,49,1,446,Only the very tip of a boy's pointing finger is off frame.,H,0,1,video-storytelling-videobirthday__amwPjAcoC8-shot48_2,Images/video-storytelling-videobirthday__amwPjAcoC8-shot48_2/img62.jpg,Images/video-storytelling-videobirthday__amwPjAcoC8-shot48_2/img66.jpg,Images/video-storytelling-videobirthday__amwPjAcoC8-shot48_2/img68.jpg,Images/video-storytelling-videobirthday__amwPjAcoC8-shot48_2/img72.jpg,Images/video-storytelling-videobirthday__amwPjAcoC8-shot48_2/img75.jpg,Images/video-storytelling-videobirthday__amwPjAcoC8-shot48_2/img77.jpg,Images/video-storytelling-videobirthday__amwPjAcoC8-shot48_2/img78.jpg,Images/video-storytelling-videobirthday__amwPjAcoC8-shot48_2/img80.jpg,Images/video-storytelling-videobirthday__amwPjAcoC8-shot48_2/img81.jpg,Images/video-storytelling-videobirthday__amwPjAcoC8-shot48_2/img84.jpg,1545,14,0,2022-06-18_09h44.51.987,annotation,2021.2.3,Win32,60.0024001,,
,,,,,,,,,,,,,,,,,0.512962963,0.140740741,1,0,0,12.7753,image_4,0,52,52,18,1,1293,a close up of a woman with a nail brush on her face.,M,1,8,MSR-VTT-videoTestVideo_video9782-shot1_1,Images/MSR-VTT-videoTestVideo_video9782-shot1_1/img208.jpg,Images/MSR-VTT-videoTestVideo_video9782-shot1_1/img268.jpg,Images/MSR-VTT-videoTestVideo_video9782-shot1_1/img304.jpg,Images/MSR-VTT-videoTestVideo_video9782-shot1_1/img345.jpg,Images/MSR-VTT-videoTestVideo_video9782-shot1_1/img350.jpg,Images/MSR-VTT-videoTestVideo_video9782-shot1_1/img351.jpg,Images/MSR-VTT-videoTestVideo_video9782-shot1_1/img356.jpg,Images/MSR-VTT-videoTestVideo_video9782-shot1_1/img363.jpg,Images/MSR-VTT-videoTestVideo_video9782-shot1_1/img494.jpg,Images/MSR-VTT-videoTestVideo_video9782-shot1_1/img499.jpg,875,14,0,2022-06-18_09h44.51.987,annotation,2021.2.3,Win32,60.0024001,,
,,,,,,,,,,,,,,,,,0.510185185,0.159259259,1,0,0,13.4351,image_4,0,53,53,5,1,170,The right pointer finger is pointing off the bottom center of the picture.  The other hand is still holding the white paper. ,H,0,4,MSR-VTT-videoTestVideo_video9564-shot1_0,Images/MSR-VTT-videoTestVideo_video9564-shot1_0/img0.jpg,Images/MSR-VTT-videoTestVideo_video9564-shot1_0/img7.jpg,Images/MSR-VTT-videoTestVideo_video9564-shot1_0/img9.jpg,Images/MSR-VTT-videoTestVideo_video9564-shot1_0/img14.jpg,Images/MSR-VTT-videoTestVideo_video9564-shot1_0/img36.jpg,Images/MSR-VTT-videoTestVideo_video9564-shot1_0/img59.jpg,Images/MSR-VTT-videoTestVideo_video9564-shot1_0/img78.jpg,Images/MSR-VTT-videoTestVideo_video9564-shot1_0/img83.jpg,Images/MSR-VTT-videoTestVideo_video9564-shot1_0/img85.jpg,Images/MSR-VTT-videoTestVideo_video9564-shot1_0/img112.jpg,1312,14,0,2022-06-18_09h44.51.987,annotation,2021.2.3,Win32,60.0024001,,
,,,,,,,,,,,,,,,,,-0.568518519,0.158333333,1,0,0,37.7402,image_0,0,54,54,40,1,729,You can see the child on the left's left full eye and the blue wrapping paper is slightly clear standing up and the front edge,H,0,5,video-storytelling-videobirthday__amwPjAcoC8-shot32_1,Images/video-storytelling-videobirthday__amwPjAcoC8-shot32_1/img28.jpg,Images/video-storytelling-videobirthday__amwPjAcoC8-shot32_1/img37.jpg,Images/video-storytelling-videobirthday__amwPjAcoC8-shot32_1/img43.jpg,Images/video-storytelling-videobirthday__amwPjAcoC8-shot32_1/img62.jpg,Images/video-storytelling-videobirthday__amwPjAcoC8-shot32_1/img66.jpg,Images/video-storytelling-videobirthday__amwPjAcoC8-shot32_1/img69.jpg,Images/video-storytelling-videobirthday__amwPjAcoC8-shot32_1/img72.jpg,Images/video-storytelling-videobirthday__amwPjAcoC8-shot32_1/img74.jpg,Images/video-storytelling-videobirthday__amwPjAcoC8-shot32_1/img76.jpg,Images/video-storytelling-videobirthday__amwPjAcoC8-shot32_1/img80.jpg,1411,14,0,2022-06-18_09h44.51.987,annotation,2021.2.3,Win32,60.0024001,,
,,,,,,,,,,,,,,,,,-0.531481481,0.162037037,1,0,0,22.1668,image_0,0,55,55,4,1,1271,A man holding a skateboard in front of a mirror.,M,0,8,MSR-VTT-videoTestVideo_video9875-shot6_0,Images/MSR-VTT-videoTestVideo_video9875-shot6_0/img0.jpg,Images/MSR-VTT-videoTestVideo_video9875-shot6_0/img4.jpg,Images/MSR-VTT-videoTestVideo_video9875-shot6_0/img9.jpg,Images/MSR-VTT-videoTestVideo_video9875-shot6_0/img11.jpg,Images/MSR-VTT-videoTestVideo_video9875-shot6_0/img16.jpg,Images/MSR-VTT-videoTestVideo_video9875-shot6_0/img26.jpg,Images/MSR-VTT-videoTestVideo_video9875-shot6_0/img32.jpg,Images/MSR-VTT-videoTestVideo_video9875-shot6_0/img40.jpg,Images/MSR-VTT-videoTestVideo_video9875-shot6_0/img44.jpg,Images/MSR-VTT-videoTestVideo_video9875-shot6_0/img57.jpg,512,14,0,2022-06-18_09h44.51.987,annotation,2021.2.3,Win32,60.0024001,,
,,,,,,,,,,,,,,,,,0.512962963,0.152777778,1,0,0,34.1261,image_4,0,56,56,12,1,580,The woman's right hand obscures the top 1/3 of the oblong yellow platter on the grill side as she holds aluminum foiled item just to the right of the grill's surface.,H,0,6,YouCook-video0016-shot15_1,Images/YouCook-video0016-shot15_1/img111.jpg,Images/YouCook-video0016-shot15_1/img118.jpg,Images/YouCook-video0016-shot15_1/img126.jpg,Images/YouCook-video0016-shot15_1/img146.jpg,Images/YouCook-video0016-shot15_1/img230.jpg,Images/YouCook-video0016-shot15_1/img273.jpg,Images/YouCook-video0016-shot15_1/img282.jpg,Images/YouCook-video0016-shot15_1/img295.jpg,Images/YouCook-video0016-shot15_1/img307.jpg,Images/YouCook-video0016-shot15_1/img391.jpg,165,14,0,2022-06-18_09h44.51.987,annotation,2021.2.3,Win32,60.0024001,,
,,,,,,,,,,,,,,,,,-0.489814815,0.159259259,1,0,0,4.8912,image_0,0,57,57,37,1,1529,A couple of women sitting on a bench next to each other.,M,0,2,video-storytelling-videocamping_1OzbiB1TIWI-shot12_13,Images/video-storytelling-videocamping_1OzbiB1TIWI-shot12_13/img663.jpg,Images/video-storytelling-videocamping_1OzbiB1TIWI-shot12_13/img681.jpg,Images/video-storytelling-videocamping_1OzbiB1TIWI-shot12_13/img691.jpg,Images/video-storytelling-videocamping_1OzbiB1TIWI-shot12_13/img697.jpg,Images/video-storytelling-videocamping_1OzbiB1TIWI-shot12_13/img705.jpg,Images/video-storytelling-videocamping_1OzbiB1TIWI-shot12_13/img707.jpg,Images/video-storytelling-videocamping_1OzbiB1TIWI-shot12_13/img708.jpg,Images/video-storytelling-videocamping_1OzbiB1TIWI-shot12_13/img712.jpg,Images/video-storytelling-videocamping_1OzbiB1TIWI-shot12_13/img713.jpg,Images/video-storytelling-videocamping_1OzbiB1TIWI-shot12_13/img716.jpg,1004,14,0,2022-06-18_09h44.51.987,annotation,2021.2.3,Win32,60.0024001,,
,,,,,,,,,,,,,,,,,-0.521296296,0.165740741,1,0,0,18.1362,image_0,0,58,58,56,1,2084,A hand holding a large piece of food on a plate.,M,0,0,YouCook-video0023-shot1_1,Images/YouCook-video0023-shot1_1/img227.jpg,Images/YouCook-video0023-shot1_1/img254.jpg,Images/YouCook-video0023-shot1_1/img320.jpg,Images/YouCook-video0023-shot1_1/img322.jpg,Images/YouCook-video0023-shot1_1/img324.jpg,Images/YouCook-video0023-shot1_1/img326.jpg,Images/YouCook-video0023-shot1_1/img329.jpg,Images/YouCook-video0023-shot1_1/img332.jpg,Images/YouCook-video0023-shot1_1/img336.jpg,Images/YouCook-video0023-shot1_1/img341.jpg,1104,14,0,2022-06-18_09h44.51.987,annotation,2021.2.3,Win32,60.0024001,,
,,,,,,,,,,,,,,,,,-0.546296296,0.113888889,1,0,0,18.2738,image_0,0,59,59,54,1,316,A non close up shot of a grey horse facing a fence,H,0,0,MSR-VTT-videoTestVideo_video8242-shot2_1,Images/MSR-VTT-videoTestVideo_video8242-shot2_1/img53.jpg,Images/MSR-VTT-videoTestVideo_video8242-shot2_1/img56.jpg,Images/MSR-VTT-videoTestVideo_video8242-shot2_1/img58.jpg,Images/MSR-VTT-videoTestVideo_video8242-shot2_1/img59.jpg,Images/MSR-VTT-videoTestVideo_video8242-shot2_1/img61.jpg,Images/MSR-VTT-videoTestVideo_video8242-shot2_1/img62.jpg,Images/MSR-VTT-videoTestVideo_video8242-shot2_1/img63.jpg,Images/MSR-VTT-videoTestVideo_video8242-shot2_1/img65.jpg,Images/MSR-VTT-videoTestVideo_video8242-shot2_1/img67.jpg,Images/MSR-VTT-videoTestVideo_video8242-shot2_1/img68.jpg,1835,14,0,2022-06-18_09h44.51.987,annotation,2021.2.3,Win32,60.0024001,,
,,,,,,,,,,,,,,,,,-0.512962963,0.146296296,1,0,0,8.0032,image_0,0,60,60,51,1,1111,A horse that is standing in a grassy area.,M,1,5,MSR-VTT-videoTestVideo_video9311-shot1_0,Images/MSR-VTT-videoTestVideo_video9311-shot1_0/img0.jpg,Images/MSR-VTT-videoTestVideo_video9311-shot1_0/img7.jpg,Images/MSR-VTT-videoTestVideo_video9311-shot1_0/img18.jpg,Images/MSR-VTT-videoTestVideo_video9311-shot1_0/img38.jpg,Images/MSR-VTT-videoTestVideo_video9311-shot1_0/img64.jpg,Images/MSR-VTT-videoTestVideo_video9311-shot1_0/img65.jpg,Images/MSR-VTT-videoTestVideo_video9311-shot1_0/img75.jpg,Images/MSR-VTT-videoTestVideo_video9311-shot1_0/img82.jpg,Images/MSR-VTT-videoTestVideo_video9311-shot1_0/img87.jpg,Images/MSR-VTT-videoTestVideo_video9311-shot1_0/img90.jpg,177,14,0,2022-06-18_09h44.51.987,annotation,2021.2.3,Win32,60.0024001,,
,,,,,,,,,,,,,,,,,-0.5,-0.15,1,0,0,4.7623,image_5,0,61,61,59,1,1,The only picture of a hawk.  It is looking to the left.  You see lots of branches and darker blue sky. ,H,,5,open-images-958_686caac9c5b322e7,Checks/check2/open-images-2603_1b5152f01f0093e7img3.jpg,Checks/check2/open-images-1836_069810916ce5d675img8.jpg,Checks/check2/open-images-974_0748fdedc4bf8b7bimg2.jpg,Checks/check2/open-images-617_01fb725fb1aa7b04img6.jpg,Checks/check2/open-images-507_047769e1f977cd97img2.jpg,Checks/check2/open-images-958_686caac9c5b322e7img5.jpg,Checks/check2/open-images-1278_21851d9bf5dc05c9img7.jpg,Checks/check2/open-images-2424_05f04546e01499f2img0.jpg,Checks/check2/open-images-1529_1442b11a10a6aeadimg3.jpg,Checks/check2/open-images-514_2c523ddedc2561d4img1.jpg,,,1,2022-06-18_09h44.51.987,annotation,2021.2.3,Win32,60.0024001,,
,,,,,,,,,,,,,,,,,-0.521296296,0.185185185,1,0,0,10.1159,image_0,0,62,62,16,1,1916,A group of people are watching a video game.,M,0,4,MSR-VTT-videoTestVideo_video7332-shot4_0,Images/MSR-VTT-videoTestVideo_video7332-shot4_0/img0.jpg,Images/MSR-VTT-videoTestVideo_video7332-shot4_0/img1.jpg,Images/MSR-VTT-videoTestVideo_video7332-shot4_0/img13.jpg,Images/MSR-VTT-videoTestVideo_video7332-shot4_0/img16.jpg,Images/MSR-VTT-videoTestVideo_video7332-shot4_0/img20.jpg,Images/MSR-VTT-videoTestVideo_video7332-shot4_0/img23.jpg,Images/MSR-VTT-videoTestVideo_video7332-shot4_0/img28.jpg,Images/MSR-VTT-videoTestVideo_video7332-shot4_0/img34.jpg,Images/MSR-VTT-videoTestVideo_video7332-shot4_0/img38.jpg,Images/MSR-VTT-videoTestVideo_video7332-shot4_0/img42.jpg,517,14,0,2022-06-18_09h44.51.987,annotation,2021.2.3,Win32,60.0024001,,
,,,,,,,,,,,,,,,,,,,,,,,,,,,,,,,,,,,,,,,,,,,,,,,,2022-06-18_09h44.51.987,annotation,2021.2.3,Win32,60.0024001,space,15.8354
