mturk,key_resp_2.keys,key_resp_2.rt,key_resp_3.keys,key_resp_3.rt,mouse_2.x,mouse_2.y,mouse_2.leftButton,mouse_2.midButton,mouse_2.rightButton,mouse_2.clicked_name,key_resp_5.keys,key_resp_5.rt,key_resp.keys,key_resp.rt,key_resp_6.keys,key_resp_6.rt,mouse.x,mouse.y,mouse.leftButton,mouse.midButton,mouse.rightButton,mouse.clicked_name,trials.thisRepN,trials.thisTrialN,trials.thisN,trials.thisIndex,trials.ran,N,caption,class_caption,model_guessed,target_idx,image_set,img1,img2,img3,img4,img5,img6,img7,img8,img9,img10,Q_id,block,is_check,date,expName,psychopyVersion,OS,frameRate,key_resp_7.keys,key_resp_7.rt
2105947,space,7.4117,space,5.4642,0.189027863,0.090740738,1,0,0,ex4,space,5.6972,space,7.9507,space,4.165,0.485324097,-0.163888931,1,0,0,image_9,0,0,0,60,1,2,Green type writer with a red tape. ,H,,9,open-images-531_0dd4eb59d465a8be,Checks/check3/open-images-503_1ccd6fa641154ebbimg7.jpg,Checks/check3/open-images-1852_00faf52058ad28b8img4.jpg,Checks/check3/open-images-386_1b2e28d6d994603eimg1.jpg,Checks/check3/open-images-471_1121e9f97c200ac0img8.jpg,Checks/check3/open-images-1886_3db71eaddb618934img8.jpg,Checks/check3/open-images-1696_20a4ebf0c0f76b05img6.jpg,Checks/check3/open-images-2447_128483a48e1552f4img6.jpg,Checks/check3/open-images-2994_9965cbf8aa20bda0img2.jpg,Checks/check3/open-images-1068_03d63613107970b3img6.jpg,Checks/check3/open-images-531_0dd4eb59d465a8beimg9.jpg,,,1,2022-06-15_12h06.26.690,annotation,2021.2.3,Win32,60.28817749,,
,,,,,,,,,,,,,,,,,-0.008194427,0.161111107,1,0,0,image_2,0,1,1,29,1,682,A blurry woman is holding a can that is barely touching her right cheek.The shoulder and string of a grey hoodie is seen in the pink chair.,H,0,2,video-storytelling-videocamping_1OzbiB1TIWI-shot11_11,Images/video-storytelling-videocamping_1OzbiB1TIWI-shot11_11/img478.jpg,Images/video-storytelling-videocamping_1OzbiB1TIWI-shot11_11/img479.jpg,Images/video-storytelling-videocamping_1OzbiB1TIWI-shot11_11/img480.jpg,Images/video-storytelling-videocamping_1OzbiB1TIWI-shot11_11/img482.jpg,Images/video-storytelling-videocamping_1OzbiB1TIWI-shot11_11/img486.jpg,Images/video-storytelling-videocamping_1OzbiB1TIWI-shot11_11/img506.jpg,Images/video-storytelling-videocamping_1OzbiB1TIWI-shot11_11/img509.jpg,Images/video-storytelling-videocamping_1OzbiB1TIWI-shot11_11/img510.jpg,Images/video-storytelling-videocamping_1OzbiB1TIWI-shot11_11/img513.jpg,Images/video-storytelling-videocamping_1OzbiB1TIWI-shot11_11/img519.jpg,1431,12,0,2022-06-15_12h06.26.690,annotation,2021.2.3,Win32,60.28817749,,
,,,,,,,,,,,,,,,,,-0.546157379,-0.135185204,1,0,0,image_5,0,2,2,11,1,1297,A person is standing next to a person who is wearing a hat.,M,0,7,video-storytelling-videobirthday__amwPjAcoC8-shot51_2,Images/video-storytelling-videobirthday__amwPjAcoC8-shot51_2/img44.jpg,Images/video-storytelling-videobirthday__amwPjAcoC8-shot51_2/img47.jpg,Images/video-storytelling-videobirthday__amwPjAcoC8-shot51_2/img53.jpg,Images/video-storytelling-videobirthday__amwPjAcoC8-shot51_2/img56.jpg,Images/video-storytelling-videobirthday__amwPjAcoC8-shot51_2/img58.jpg,Images/video-storytelling-videobirthday__amwPjAcoC8-shot51_2/img62.jpg,Images/video-storytelling-videobirthday__amwPjAcoC8-shot51_2/img64.jpg,Images/video-storytelling-videobirthday__amwPjAcoC8-shot51_2/img70.jpg,Images/video-storytelling-videobirthday__amwPjAcoC8-shot51_2/img73.jpg,Images/video-storytelling-videobirthday__amwPjAcoC8-shot51_2/img75.jpg,1738,12,0,2022-06-15_12h06.26.690,annotation,2021.2.3,Win32,60.28817749,,
,,,,,,,,,,,,,,,,,0.527916718,-0.158333359,1,0,0,image_9,0,3,3,4,1,1978,A man standing next to a woman in a suit.,M,1,7,video-storytelling-videowedding_Bp8t824h5NE-shot62_7,Images/video-storytelling-videowedding_Bp8t824h5NE-shot62_7/img1128.jpg,Images/video-storytelling-videowedding_Bp8t824h5NE-shot62_7/img1139.jpg,Images/video-storytelling-videowedding_Bp8t824h5NE-shot62_7/img1159.jpg,Images/video-storytelling-videowedding_Bp8t824h5NE-shot62_7/img1170.jpg,Images/video-storytelling-videowedding_Bp8t824h5NE-shot62_7/img1173.jpg,Images/video-storytelling-videowedding_Bp8t824h5NE-shot62_7/img1176.jpg,Images/video-storytelling-videowedding_Bp8t824h5NE-shot62_7/img1180.jpg,Images/video-storytelling-videowedding_Bp8t824h5NE-shot62_7/img1183.jpg,Images/video-storytelling-videowedding_Bp8t824h5NE-shot62_7/img1187.jpg,Images/video-storytelling-videowedding_Bp8t824h5NE-shot62_7/img1191.jpg,2048,12,0,2022-06-15_12h06.26.690,annotation,2021.2.3,Win32,60.28817749,,
,,,,,,,,,,,,,,,,,-0.461898117,0.173148117,1,0,0,image_0,0,4,4,5,1,1090,A group of women standing on a dirt road.,M,1,3,video-storytelling-videocamping_1OzbiB1TIWI-shot14_7,Images/video-storytelling-videocamping_1OzbiB1TIWI-shot14_7/img974.jpg,Images/video-storytelling-videocamping_1OzbiB1TIWI-shot14_7/img982.jpg,Images/video-storytelling-videocamping_1OzbiB1TIWI-shot14_7/img986.jpg,Images/video-storytelling-videocamping_1OzbiB1TIWI-shot14_7/img994.jpg,Images/video-storytelling-videocamping_1OzbiB1TIWI-shot14_7/img1001.jpg,Images/video-storytelling-videocamping_1OzbiB1TIWI-shot14_7/img1007.jpg,Images/video-storytelling-videocamping_1OzbiB1TIWI-shot14_7/img1024.jpg,Images/video-storytelling-videocamping_1OzbiB1TIWI-shot14_7/img1034.jpg,Images/video-storytelling-videocamping_1OzbiB1TIWI-shot14_7/img1037.jpg,Images/video-storytelling-videocamping_1OzbiB1TIWI-shot14_7/img1042.jpg,2051,12,0,2022-06-15_12h06.26.690,annotation,2021.2.3,Win32,60.28817749,,
,,,,,,,,,,,,,,,,,0.226990814,-0.183333359,1,0,0,image_8,0,5,5,47,1,2066,A young girl playing with a frisbee in a field.,M,0,7,MSR-VTT-videoTestVideo_video7428-shot2_1,Images/MSR-VTT-videoTestVideo_video7428-shot2_1/img31.jpg,Images/MSR-VTT-videoTestVideo_video7428-shot2_1/img35.jpg,Images/MSR-VTT-videoTestVideo_video7428-shot2_1/img41.jpg,Images/MSR-VTT-videoTestVideo_video7428-shot2_1/img45.jpg,Images/MSR-VTT-videoTestVideo_video7428-shot2_1/img50.jpg,Images/MSR-VTT-videoTestVideo_video7428-shot2_1/img53.jpg,Images/MSR-VTT-videoTestVideo_video7428-shot2_1/img56.jpg,Images/MSR-VTT-videoTestVideo_video7428-shot2_1/img60.jpg,Images/MSR-VTT-videoTestVideo_video7428-shot2_1/img65.jpg,Images/MSR-VTT-videoTestVideo_video7428-shot2_1/img66.jpg,279,12,0,2022-06-15_12h06.26.690,annotation,2021.2.3,Win32,60.28817749,,
,,,,,,,,,,,,,,,,,-0.423935127,-0.19722229,1,0,0,image_5,0,6,6,39,1,628,In the target all of the animals are looking to the left. The rabbit on the far right has it's head just about even with the rabbit next to it.,H,1,5,MSR-VTT-videoTestVideo_video8536-shot0_0,Images/MSR-VTT-videoTestVideo_video8536-shot0_0/img0.jpg,Images/MSR-VTT-videoTestVideo_video8536-shot0_0/img2.jpg,Images/MSR-VTT-videoTestVideo_video8536-shot0_0/img7.jpg,Images/MSR-VTT-videoTestVideo_video8536-shot0_0/img11.jpg,Images/MSR-VTT-videoTestVideo_video8536-shot0_0/img17.jpg,Images/MSR-VTT-videoTestVideo_video8536-shot0_0/img20.jpg,Images/MSR-VTT-videoTestVideo_video8536-shot0_0/img28.jpg,Images/MSR-VTT-videoTestVideo_video8536-shot0_0/img35.jpg,Images/MSR-VTT-videoTestVideo_video8536-shot0_0/img36.jpg,Images/MSR-VTT-videoTestVideo_video8536-shot0_0/img45.jpg,325,12,0,2022-06-15_12h06.26.690,annotation,2021.2.3,Win32,60.28817749,,
,,,,,,,,,,,,,,,,,-0.460972214,-0.128703728,1,0,0,image_5,0,7,7,27,1,1010,"A very stip of the man's face is visible in the to corner, and the woman is looking down at something with the top of her hair off frame",H,0,4,MSR-VTT-videoTestVideo_video7533-shot1_3,Images/MSR-VTT-videoTestVideo_video7533-shot1_3/img281.jpg,Images/MSR-VTT-videoTestVideo_video7533-shot1_3/img290.jpg,Images/MSR-VTT-videoTestVideo_video7533-shot1_3/img307.jpg,Images/MSR-VTT-videoTestVideo_video7533-shot1_3/img311.jpg,Images/MSR-VTT-videoTestVideo_video7533-shot1_3/img322.jpg,Images/MSR-VTT-videoTestVideo_video7533-shot1_3/img332.jpg,Images/MSR-VTT-videoTestVideo_video7533-shot1_3/img372.jpg,Images/MSR-VTT-videoTestVideo_video7533-shot1_3/img385.jpg,Images/MSR-VTT-videoTestVideo_video7533-shot1_3/img389.jpg,Images/MSR-VTT-videoTestVideo_video7533-shot1_3/img397.jpg,768,12,0,2022-06-15_12h06.26.690,annotation,2021.2.3,Win32,60.28817749,,
,,,,,,,,,,,,,,,,,-0.262824097,-0.180555496,1,0,0,image_6,0,8,8,42,1,780,The man is standing straight forwards and his hand is on the left of his chest. ,H,0,6,MSR-VTT-videoTestVideo_video9243-shot1_1,Images/MSR-VTT-videoTestVideo_video9243-shot1_1/img36.jpg,Images/MSR-VTT-videoTestVideo_video9243-shot1_1/img38.jpg,Images/MSR-VTT-videoTestVideo_video9243-shot1_1/img45.jpg,Images/MSR-VTT-videoTestVideo_video9243-shot1_1/img66.jpg,Images/MSR-VTT-videoTestVideo_video9243-shot1_1/img74.jpg,Images/MSR-VTT-videoTestVideo_video9243-shot1_1/img79.jpg,Images/MSR-VTT-videoTestVideo_video9243-shot1_1/img90.jpg,Images/MSR-VTT-videoTestVideo_video9243-shot1_1/img120.jpg,Images/MSR-VTT-videoTestVideo_video9243-shot1_1/img129.jpg,Images/MSR-VTT-videoTestVideo_video9243-shot1_1/img145.jpg,587,12,0,2022-06-15_12h06.26.690,annotation,2021.2.3,Win32,60.28817749,,
,,,,,,,,,,,,,,,,,0.253842621,0.147222252,1,0,0,image_3,0,9,9,3,1,1611,A group of people standing in front of a cake.,M,0,3,video-storytelling-videobirthday_fwpYnUDbusw-shot61_0,Images/video-storytelling-videobirthday_fwpYnUDbusw-shot61_0/img2.jpg,Images/video-storytelling-videobirthday_fwpYnUDbusw-shot61_0/img39.jpg,Images/video-storytelling-videobirthday_fwpYnUDbusw-shot61_0/img55.jpg,Images/video-storytelling-videobirthday_fwpYnUDbusw-shot61_0/img70.jpg,Images/video-storytelling-videobirthday_fwpYnUDbusw-shot61_0/img99.jpg,Images/video-storytelling-videobirthday_fwpYnUDbusw-shot61_0/img120.jpg,Images/video-storytelling-videobirthday_fwpYnUDbusw-shot61_0/img135.jpg,Images/video-storytelling-videobirthday_fwpYnUDbusw-shot61_0/img176.jpg,Images/video-storytelling-videobirthday_fwpYnUDbusw-shot61_0/img211.jpg,Images/video-storytelling-videobirthday_fwpYnUDbusw-shot61_0/img267.jpg,2046,12,0,2022-06-15_12h06.26.690,annotation,2021.2.3,Win32,60.28817749,,
,,,,,,,,,,,,,,,,,-0.511898117,-0.157407455,1,0,0,image_5,0,10,10,33,1,527,Half the body of the woman sitting on the sofa is visible.,H,0,5,video-storytelling-videochristmas_5RR_sRzKODA-shot30_7,Images/video-storytelling-videochristmas_5RR_sRzKODA-shot30_7/img394.jpg,Images/video-storytelling-videochristmas_5RR_sRzKODA-shot30_7/img401.jpg,Images/video-storytelling-videochristmas_5RR_sRzKODA-shot30_7/img405.jpg,Images/video-storytelling-videochristmas_5RR_sRzKODA-shot30_7/img406.jpg,Images/video-storytelling-videochristmas_5RR_sRzKODA-shot30_7/img408.jpg,Images/video-storytelling-videochristmas_5RR_sRzKODA-shot30_7/img411.jpg,Images/video-storytelling-videochristmas_5RR_sRzKODA-shot30_7/img416.jpg,Images/video-storytelling-videochristmas_5RR_sRzKODA-shot30_7/img422.jpg,Images/video-storytelling-videochristmas_5RR_sRzKODA-shot30_7/img423.jpg,Images/video-storytelling-videochristmas_5RR_sRzKODA-shot30_7/img425.jpg,934,12,0,2022-06-15_12h06.26.690,annotation,2021.2.3,Win32,60.28817749,,
,,,,,,,,,,,,,,,,,-0.491527748,0.114814796,1,0,0,image_0,0,11,11,48,1,1796,A group of people standing in a room.,M,0,6,MSR-VTT-videoTestVideo_video7725-shot2_6,Images/MSR-VTT-videoTestVideo_video7725-shot2_6/img192.jpg,Images/MSR-VTT-videoTestVideo_video7725-shot2_6/img198.jpg,Images/MSR-VTT-videoTestVideo_video7725-shot2_6/img201.jpg,Images/MSR-VTT-videoTestVideo_video7725-shot2_6/img205.jpg,Images/MSR-VTT-videoTestVideo_video7725-shot2_6/img217.jpg,Images/MSR-VTT-videoTestVideo_video7725-shot2_6/img222.jpg,Images/MSR-VTT-videoTestVideo_video7725-shot2_6/img225.jpg,Images/MSR-VTT-videoTestVideo_video7725-shot2_6/img226.jpg,Images/MSR-VTT-videoTestVideo_video7725-shot2_6/img232.jpg,Images/MSR-VTT-videoTestVideo_video7725-shot2_6/img236.jpg,270,12,0,2022-06-15_12h06.26.690,annotation,2021.2.3,Win32,60.28817749,,
,,,,,,,,,,,,,,,,,-0.423935127,0.148148117,1,0,0,image_0,0,12,12,19,1,965,"The person has their arms bent over their head, slightly touching their hair with open hands.",H,0,0,MSR-VTT-videoTestVideo_video7663-shot2_0,Images/MSR-VTT-videoTestVideo_video7663-shot2_0/img0.jpg,Images/MSR-VTT-videoTestVideo_video7663-shot2_0/img6.jpg,Images/MSR-VTT-videoTestVideo_video7663-shot2_0/img11.jpg,Images/MSR-VTT-videoTestVideo_video7663-shot2_0/img18.jpg,Images/MSR-VTT-videoTestVideo_video7663-shot2_0/img24.jpg,Images/MSR-VTT-videoTestVideo_video7663-shot2_0/img28.jpg,Images/MSR-VTT-videoTestVideo_video7663-shot2_0/img31.jpg,Images/MSR-VTT-videoTestVideo_video7663-shot2_0/img34.jpg,Images/MSR-VTT-videoTestVideo_video7663-shot2_0/img50.jpg,Images/MSR-VTT-videoTestVideo_video7663-shot2_0/img56.jpg,931,12,0,2022-06-15_12h06.26.690,annotation,2021.2.3,Win32,60.28817749,,
,,,,,,,,,,,,,,,,,0.534398346,0.150925903,1,0,0,image_4,0,13,13,52,1,1889,A man in a suit and tie standing in front of a building.,M,0,1,MSR-VTT-videoTestVideo_video9379-shot1_1,Images/MSR-VTT-videoTestVideo_video9379-shot1_1/img92.jpg,Images/MSR-VTT-videoTestVideo_video9379-shot1_1/img95.jpg,Images/MSR-VTT-videoTestVideo_video9379-shot1_1/img98.jpg,Images/MSR-VTT-videoTestVideo_video9379-shot1_1/img103.jpg,Images/MSR-VTT-videoTestVideo_video9379-shot1_1/img116.jpg,Images/MSR-VTT-videoTestVideo_video9379-shot1_1/img123.jpg,Images/MSR-VTT-videoTestVideo_video9379-shot1_1/img131.jpg,Images/MSR-VTT-videoTestVideo_video9379-shot1_1/img137.jpg,Images/MSR-VTT-videoTestVideo_video9379-shot1_1/img143.jpg,Images/MSR-VTT-videoTestVideo_video9379-shot1_1/img154.jpg,140,12,0,2022-06-15_12h06.26.690,annotation,2021.2.3,Win32,60.28817749,,
,,,,,,,,,,,,,,,,,-0.515601807,-0.136111145,1,0,0,image_5,0,14,14,59,1,1,The only picture of a hawk.  It is looking to the left.  You see lots of branches and darker blue sky. ,H,,5,open-images-958_686caac9c5b322e7,Checks/check2/open-images-2603_1b5152f01f0093e7img3.jpg,Checks/check2/open-images-1836_069810916ce5d675img8.jpg,Checks/check2/open-images-974_0748fdedc4bf8b7bimg2.jpg,Checks/check2/open-images-617_01fb725fb1aa7b04img6.jpg,Checks/check2/open-images-507_047769e1f977cd97img2.jpg,Checks/check2/open-images-958_686caac9c5b322e7img5.jpg,Checks/check2/open-images-1278_21851d9bf5dc05c9img7.jpg,Checks/check2/open-images-2424_05f04546e01499f2img0.jpg,Checks/check2/open-images-1529_1442b11a10a6aeadimg3.jpg,Checks/check2/open-images-514_2c523ddedc2561d4img1.jpg,,,1,2022-06-15_12h06.26.690,annotation,2021.2.3,Win32,60.28817749,,
,,,,,,,,,,,,,,,,,-0.210046234,-0.154629669,1,0,0,image_6,0,15,15,45,1,95,"While her head is straight, the kids hairline isnjust below the top of the frame and the top of the head isn't visible ",H,0,5,video-storytelling-videochristmas_5RR_sRzKODA-shot30_6,Images/video-storytelling-videochristmas_5RR_sRzKODA-shot30_6/img345.jpg,Images/video-storytelling-videochristmas_5RR_sRzKODA-shot30_6/img349.jpg,Images/video-storytelling-videochristmas_5RR_sRzKODA-shot30_6/img350.jpg,Images/video-storytelling-videochristmas_5RR_sRzKODA-shot30_6/img352.jpg,Images/video-storytelling-videochristmas_5RR_sRzKODA-shot30_6/img358.jpg,Images/video-storytelling-videochristmas_5RR_sRzKODA-shot30_6/img361.jpg,Images/video-storytelling-videochristmas_5RR_sRzKODA-shot30_6/img365.jpg,Images/video-storytelling-videochristmas_5RR_sRzKODA-shot30_6/img383.jpg,Images/video-storytelling-videochristmas_5RR_sRzKODA-shot30_6/img387.jpg,Images/video-storytelling-videochristmas_5RR_sRzKODA-shot30_6/img393.jpg,432,12,0,2022-06-15_12h06.26.690,annotation,2021.2.3,Win32,60.28817749,,
,,,,,,,,,,,,,,,,,0.539027863,-0.182407455,1,0,0,image_9,0,16,16,37,1,1249,a close up of a bowl of food on a table.,M,0,7,MSR-VTT-videoTestVideo_video9409-shot1_0,Images/MSR-VTT-videoTestVideo_video9409-shot1_0/img0.jpg,Images/MSR-VTT-videoTestVideo_video9409-shot1_0/img5.jpg,Images/MSR-VTT-videoTestVideo_video9409-shot1_0/img15.jpg,Images/MSR-VTT-videoTestVideo_video9409-shot1_0/img26.jpg,Images/MSR-VTT-videoTestVideo_video9409-shot1_0/img42.jpg,Images/MSR-VTT-videoTestVideo_video9409-shot1_0/img64.jpg,Images/MSR-VTT-videoTestVideo_video9409-shot1_0/img97.jpg,Images/MSR-VTT-videoTestVideo_video9409-shot1_0/img112.jpg,Images/MSR-VTT-videoTestVideo_video9409-shot1_0/img128.jpg,Images/MSR-VTT-videoTestVideo_video9409-shot1_0/img206.jpg,1494,12,0,2022-06-15_12h06.26.690,annotation,2021.2.3,Win32,60.28817749,,
,,,,,,,,,,,,,,,,,-0.045231476,-0.184259262,1,0,0,image_7,0,17,17,8,1,369,The leaf is just barely touching the back of the head of the animal in the bottom left corner.,H,0,7,MSR-VTT-videoTestVideo_video7295-shot1_10,Images/MSR-VTT-videoTestVideo_video7295-shot1_10/img185.jpg,Images/MSR-VTT-videoTestVideo_video7295-shot1_10/img191.jpg,Images/MSR-VTT-videoTestVideo_video7295-shot1_10/img198.jpg,Images/MSR-VTT-videoTestVideo_video7295-shot1_10/img201.jpg,Images/MSR-VTT-videoTestVideo_video7295-shot1_10/img203.jpg,Images/MSR-VTT-videoTestVideo_video7295-shot1_10/img204.jpg,Images/MSR-VTT-videoTestVideo_video7295-shot1_10/img206.jpg,Images/MSR-VTT-videoTestVideo_video7295-shot1_10/img207.jpg,Images/MSR-VTT-videoTestVideo_video7295-shot1_10/img208.jpg,Images/MSR-VTT-videoTestVideo_video7295-shot1_10/img209.jpg,1194,12,0,2022-06-15_12h06.26.690,annotation,2021.2.3,Win32,60.28817749,,
,,,,,,,,,,,,,,,,,-0.498009224,-0.165740738,1,0,0,image_5,0,18,18,34,1,642,"Her lips are pursed and her gloved right hand obscures her right, lower face in blurry darkness.",H,1,5,MSR-VTT-videoTestVideo_video7533-shot1_4,Images/MSR-VTT-videoTestVideo_video7533-shot1_4/img398.jpg,Images/MSR-VTT-videoTestVideo_video7533-shot1_4/img402.jpg,Images/MSR-VTT-videoTestVideo_video7533-shot1_4/img406.jpg,Images/MSR-VTT-videoTestVideo_video7533-shot1_4/img413.jpg,Images/MSR-VTT-videoTestVideo_video7533-shot1_4/img417.jpg,Images/MSR-VTT-videoTestVideo_video7533-shot1_4/img423.jpg,Images/MSR-VTT-videoTestVideo_video7533-shot1_4/img425.jpg,Images/MSR-VTT-videoTestVideo_video7533-shot1_4/img429.jpg,Images/MSR-VTT-videoTestVideo_video7533-shot1_4/img449.jpg,Images/MSR-VTT-videoTestVideo_video7533-shot1_4/img456.jpg,1246,12,0,2022-06-15_12h06.26.690,annotation,2021.2.3,Win32,60.28817749,,
,,,,,,,,,,,,,,,,,0.28347229,0.172222252,1,0,0,image_3,0,19,19,49,1,1378,A close up of a person wearing a jacket.,M,0,4,MSR-VTT-videoTestVideo_video9235-shot0_0,Images/MSR-VTT-videoTestVideo_video9235-shot0_0/img0.jpg,Images/MSR-VTT-videoTestVideo_video9235-shot0_0/img4.jpg,Images/MSR-VTT-videoTestVideo_video9235-shot0_0/img7.jpg,Images/MSR-VTT-videoTestVideo_video9235-shot0_0/img9.jpg,Images/MSR-VTT-videoTestVideo_video9235-shot0_0/img11.jpg,Images/MSR-VTT-videoTestVideo_video9235-shot0_0/img15.jpg,Images/MSR-VTT-videoTestVideo_video9235-shot0_0/img19.jpg,Images/MSR-VTT-videoTestVideo_video9235-shot0_0/img22.jpg,Images/MSR-VTT-videoTestVideo_video9235-shot0_0/img29.jpg,Images/MSR-VTT-videoTestVideo_video9235-shot0_0/img40.jpg,214,12,0,2022-06-15_12h06.26.690,annotation,2021.2.3,Win32,60.28817749,,
,,,,,,,,,,,,,,,,,-0.45078701,0.107407379,1,0,0,image_0,0,20,20,54,1,1530,A woman standing next to a dog in a kitchen.,M,1,0,video-storytelling-videobirthday_fwpYnUDbusw-shot18_0,Images/video-storytelling-videobirthday_fwpYnUDbusw-shot18_0/img0.jpg,Images/video-storytelling-videobirthday_fwpYnUDbusw-shot18_0/img2.jpg,Images/video-storytelling-videobirthday_fwpYnUDbusw-shot18_0/img10.jpg,Images/video-storytelling-videobirthday_fwpYnUDbusw-shot18_0/img20.jpg,Images/video-storytelling-videobirthday_fwpYnUDbusw-shot18_0/img29.jpg,Images/video-storytelling-videobirthday_fwpYnUDbusw-shot18_0/img37.jpg,Images/video-storytelling-videobirthday_fwpYnUDbusw-shot18_0/img42.jpg,Images/video-storytelling-videobirthday_fwpYnUDbusw-shot18_0/img46.jpg,Images/video-storytelling-videobirthday_fwpYnUDbusw-shot18_0/img53.jpg,Images/video-storytelling-videobirthday_fwpYnUDbusw-shot18_0/img57.jpg,124,12,0,2022-06-15_12h06.26.690,annotation,2021.2.3,Win32,60.28817749,,
,,,,,,,,,,,,,,,,,0.038101959,0.132407379,1,0,0,image_2,0,21,21,30,1,974,The girl in black has her hand partially out of frame,H,0,2,video-storytelling-videocamping_1OzbiB1TIWI-shot5_2,Images/video-storytelling-videocamping_1OzbiB1TIWI-shot5_2/img138.jpg,Images/video-storytelling-videocamping_1OzbiB1TIWI-shot5_2/img142.jpg,Images/video-storytelling-videocamping_1OzbiB1TIWI-shot5_2/img143.jpg,Images/video-storytelling-videocamping_1OzbiB1TIWI-shot5_2/img151.jpg,Images/video-storytelling-videocamping_1OzbiB1TIWI-shot5_2/img155.jpg,Images/video-storytelling-videocamping_1OzbiB1TIWI-shot5_2/img160.jpg,Images/video-storytelling-videocamping_1OzbiB1TIWI-shot5_2/img170.jpg,Images/video-storytelling-videocamping_1OzbiB1TIWI-shot5_2/img173.jpg,Images/video-storytelling-videocamping_1OzbiB1TIWI-shot5_2/img177.jpg,Images/video-storytelling-videocamping_1OzbiB1TIWI-shot5_2/img179.jpg,1279,12,0,2022-06-15_12h06.26.690,annotation,2021.2.3,Win32,60.28817749,,
,,,,,,,,,,,,,,,,,0.498287048,0.113888855,1,0,0,image_4,0,22,22,16,1,116,The girl's head is blocking the entire right side of the car.  Her mouth is slightly open and her eyes are all the way open. ,H,1,6,video-storytelling-videocamping_dBXYM3dQTSo-shot55_0,Images/video-storytelling-videocamping_dBXYM3dQTSo-shot55_0/img0.jpg,Images/video-storytelling-videocamping_dBXYM3dQTSo-shot55_0/img1.jpg,Images/video-storytelling-videocamping_dBXYM3dQTSo-shot55_0/img11.jpg,Images/video-storytelling-videocamping_dBXYM3dQTSo-shot55_0/img19.jpg,Images/video-storytelling-videocamping_dBXYM3dQTSo-shot55_0/img25.jpg,Images/video-storytelling-videocamping_dBXYM3dQTSo-shot55_0/img29.jpg,Images/video-storytelling-videocamping_dBXYM3dQTSo-shot55_0/img34.jpg,Images/video-storytelling-videocamping_dBXYM3dQTSo-shot55_0/img41.jpg,Images/video-storytelling-videocamping_dBXYM3dQTSo-shot55_0/img53.jpg,Images/video-storytelling-videocamping_dBXYM3dQTSo-shot55_0/img63.jpg,2053,12,0,2022-06-15_12h06.26.690,annotation,2021.2.3,Win32,60.28817749,,
,,,,,,,,,,,,,,,,,-0.023009186,0.192592583,1,0,0,image_2,0,23,23,9,1,650,There is a man on the left side of the image who is carrying trays.  You can only see the front part of the three trays.,H,1,2,MSR-VTT-videoTestVideo_video8129-shot1_3,Images/MSR-VTT-videoTestVideo_video8129-shot1_3/img421.jpg,Images/MSR-VTT-videoTestVideo_video8129-shot1_3/img425.jpg,Images/MSR-VTT-videoTestVideo_video8129-shot1_3/img435.jpg,Images/MSR-VTT-videoTestVideo_video8129-shot1_3/img441.jpg,Images/MSR-VTT-videoTestVideo_video8129-shot1_3/img446.jpg,Images/MSR-VTT-videoTestVideo_video8129-shot1_3/img450.jpg,Images/MSR-VTT-videoTestVideo_video8129-shot1_3/img454.jpg,Images/MSR-VTT-videoTestVideo_video8129-shot1_3/img457.jpg,Images/MSR-VTT-videoTestVideo_video8129-shot1_3/img462.jpg,Images/MSR-VTT-videoTestVideo_video8129-shot1_3/img464.jpg,1166,12,0,2022-06-15_12h06.26.690,annotation,2021.2.3,Win32,60.28817749,,
,,,,,,,,,,,,,,,,,-0.510046234,0.138888855,1,0,0,image_0,0,24,24,50,1,1077,A piece of bread sitting on top of a cutting board.,M,0,1,YouCook-video0035-shot4_0,Images/YouCook-video0035-shot4_0/img0.jpg,Images/YouCook-video0035-shot4_0/img105.jpg,Images/YouCook-video0035-shot4_0/img110.jpg,Images/YouCook-video0035-shot4_0/img130.jpg,Images/YouCook-video0035-shot4_0/img132.jpg,Images/YouCook-video0035-shot4_0/img134.jpg,Images/YouCook-video0035-shot4_0/img138.jpg,Images/YouCook-video0035-shot4_0/img143.jpg,Images/YouCook-video0035-shot4_0/img149.jpg,Images/YouCook-video0035-shot4_0/img156.jpg,179,12,0,2022-06-15_12h06.26.690,annotation,2021.2.3,Win32,60.28817749,,
,,,,,,,,,,,,,,,,,0.30847229,-0.162963028,1,0,0,image_8,0,25,25,21,1,178,"The full word Lunch is visible, with the frame of the lunch sign flush with the right edge of the picture. On the left side, you can clearly see the ""SED"" of a closed sign.",H,0,8,video-storytelling-videocamping_dBXYM3dQTSo-shot78_0,Images/video-storytelling-videocamping_dBXYM3dQTSo-shot78_0/img0.jpg,Images/video-storytelling-videocamping_dBXYM3dQTSo-shot78_0/img3.jpg,Images/video-storytelling-videocamping_dBXYM3dQTSo-shot78_0/img11.jpg,Images/video-storytelling-videocamping_dBXYM3dQTSo-shot78_0/img16.jpg,Images/video-storytelling-videocamping_dBXYM3dQTSo-shot78_0/img19.jpg,Images/video-storytelling-videocamping_dBXYM3dQTSo-shot78_0/img23.jpg,Images/video-storytelling-videocamping_dBXYM3dQTSo-shot78_0/img25.jpg,Images/video-storytelling-videocamping_dBXYM3dQTSo-shot78_0/img33.jpg,Images/video-storytelling-videocamping_dBXYM3dQTSo-shot78_0/img41.jpg,Images/video-storytelling-videocamping_dBXYM3dQTSo-shot78_0/img43.jpg,1412,12,0,2022-06-15_12h06.26.690,annotation,2021.2.3,Win32,60.28817749,,
,,,,,,,,,,,,,,,,,0.241805496,-0.118518562,1,0,0,image_8,0,26,26,25,1,1002,Woman touches green beans with only right hand. Left hand not visible.,H,0,8,YouCook-video0016-shot3_2,Images/YouCook-video0016-shot3_2/img389.jpg,Images/YouCook-video0016-shot3_2/img403.jpg,Images/YouCook-video0016-shot3_2/img416.jpg,Images/YouCook-video0016-shot3_2/img468.jpg,Images/YouCook-video0016-shot3_2/img482.jpg,Images/YouCook-video0016-shot3_2/img500.jpg,Images/YouCook-video0016-shot3_2/img512.jpg,Images/YouCook-video0016-shot3_2/img547.jpg,Images/YouCook-video0016-shot3_2/img558.jpg,Images/YouCook-video0016-shot3_2/img577.jpg,1932,12,0,2022-06-15_12h06.26.690,annotation,2021.2.3,Win32,60.28817749,,
,,,,,,,,,,,,,,,,,-0.282268486,0.139814796,1,0,0,image_1,0,27,27,7,1,734,A metal object appears and is touching the left side of the bag of white powder. ,H,0,1,video-storytelling-videocamping_EytINruY3-U-shot42_0,Images/video-storytelling-videocamping_EytINruY3-U-shot42_0/img0.jpg,Images/video-storytelling-videocamping_EytINruY3-U-shot42_0/img82.jpg,Images/video-storytelling-videocamping_EytINruY3-U-shot42_0/img123.jpg,Images/video-storytelling-videocamping_EytINruY3-U-shot42_0/img129.jpg,Images/video-storytelling-videocamping_EytINruY3-U-shot42_0/img134.jpg,Images/video-storytelling-videocamping_EytINruY3-U-shot42_0/img165.jpg,Images/video-storytelling-videocamping_EytINruY3-U-shot42_0/img181.jpg,Images/video-storytelling-videocamping_EytINruY3-U-shot42_0/img194.jpg,Images/video-storytelling-videocamping_EytINruY3-U-shot42_0/img211.jpg,Images/video-storytelling-videocamping_EytINruY3-U-shot42_0/img221.jpg,913,12,0,2022-06-15_12h06.26.690,annotation,2021.2.3,Win32,60.28817749,,
,,,,,,,,,,,,,,,,,0.009398193,-0.08703701,1,0,0,image_7,0,28,28,13,1,764,The person holds the lemon over the grater. The grater's little pieces are reflecting the light and has a visible light coming off of each one. ,H,0,7,YouCook-video0063-shot17_1,Images/YouCook-video0063-shot17_1/img90.jpg,Images/YouCook-video0063-shot17_1/img97.jpg,Images/YouCook-video0063-shot17_1/img110.jpg,Images/YouCook-video0063-shot17_1/img112.jpg,Images/YouCook-video0063-shot17_1/img117.jpg,Images/YouCook-video0063-shot17_1/img125.jpg,Images/YouCook-video0063-shot17_1/img126.jpg,Images/YouCook-video0063-shot17_1/img132.jpg,Images/YouCook-video0063-shot17_1/img144.jpg,Images/YouCook-video0063-shot17_1/img146.jpg,1756,12,0,2022-06-15_12h06.26.690,annotation,2021.2.3,Win32,60.28817749,,
,,,,,,,,,,,,,,,,,-0.261898117,-0.206481552,1,0,0,image_6,0,29,29,24,1,502,The cannons are at the very bottom of the frame,H,0,6,MSR-VTT-videoTestVideo_video8896-shot1_2,Images/MSR-VTT-videoTestVideo_video8896-shot1_2/img368.jpg,Images/MSR-VTT-videoTestVideo_video8896-shot1_2/img401.jpg,Images/MSR-VTT-videoTestVideo_video8896-shot1_2/img449.jpg,Images/MSR-VTT-videoTestVideo_video8896-shot1_2/img492.jpg,Images/MSR-VTT-videoTestVideo_video8896-shot1_2/img504.jpg,Images/MSR-VTT-videoTestVideo_video8896-shot1_2/img559.jpg,Images/MSR-VTT-videoTestVideo_video8896-shot1_2/img576.jpg,Images/MSR-VTT-videoTestVideo_video8896-shot1_2/img588.jpg,Images/MSR-VTT-videoTestVideo_video8896-shot1_2/img628.jpg,Images/MSR-VTT-videoTestVideo_video8896-shot1_2/img642.jpg,1957,12,0,2022-06-15_12h06.26.690,annotation,2021.2.3,Win32,60.28817749,,
,,,,,,,,,,,,,,,,,0.302916718,-0.195370407,1,0,0,image_8,0,30,30,51,1,858,There are no stars visible.  Two fingers on different hands are the closest to each other. ,H,0,8,MSR-VTT-videoTestVideo_video8212-shot1_3,Images/MSR-VTT-videoTestVideo_video8212-shot1_3/img201.jpg,Images/MSR-VTT-videoTestVideo_video8212-shot1_3/img206.jpg,Images/MSR-VTT-videoTestVideo_video8212-shot1_3/img253.jpg,Images/MSR-VTT-videoTestVideo_video8212-shot1_3/img259.jpg,Images/MSR-VTT-videoTestVideo_video8212-shot1_3/img261.jpg,Images/MSR-VTT-videoTestVideo_video8212-shot1_3/img264.jpg,Images/MSR-VTT-videoTestVideo_video8212-shot1_3/img267.jpg,Images/MSR-VTT-videoTestVideo_video8212-shot1_3/img268.jpg,Images/MSR-VTT-videoTestVideo_video8212-shot1_3/img270.jpg,Images/MSR-VTT-videoTestVideo_video8212-shot1_3/img273.jpg,155,12,0,2022-06-15_12h06.26.690,annotation,2021.2.3,Win32,60.28817749,,
,,,,,,,,,,,,,,,,,0.276064758,0.107407379,1,0,0,image_3,0,31,31,38,1,351,The tip of a finger is visible on the object in the top right corner while the other hand no fingers are visible,H,1,1,MSR-VTT-videoTestVideo_video8197-shot1_0,Images/MSR-VTT-videoTestVideo_video8197-shot1_0/img0.jpg,Images/MSR-VTT-videoTestVideo_video8197-shot1_0/img4.jpg,Images/MSR-VTT-videoTestVideo_video8197-shot1_0/img9.jpg,Images/MSR-VTT-videoTestVideo_video8197-shot1_0/img12.jpg,Images/MSR-VTT-videoTestVideo_video8197-shot1_0/img14.jpg,Images/MSR-VTT-videoTestVideo_video8197-shot1_0/img29.jpg,Images/MSR-VTT-videoTestVideo_video8197-shot1_0/img71.jpg,Images/MSR-VTT-videoTestVideo_video8197-shot1_0/img77.jpg,Images/MSR-VTT-videoTestVideo_video8197-shot1_0/img96.jpg,Images/MSR-VTT-videoTestVideo_video8197-shot1_0/img168.jpg,1,12,0,2022-06-15_12h06.26.690,annotation,2021.2.3,Win32,60.28817749,,
,,,,,,,,,,,,,,,,,-0.004490662,0.10370369,1,0,0,image_2,0,32,32,40,1,1787,A couple of men standing next to each other.,M,1,4,MSR-VTT-videoTestVideo_video9823-shot7_0,Images/MSR-VTT-videoTestVideo_video9823-shot7_0/img0.jpg,Images/MSR-VTT-videoTestVideo_video9823-shot7_0/img1.jpg,Images/MSR-VTT-videoTestVideo_video9823-shot7_0/img3.jpg,Images/MSR-VTT-videoTestVideo_video9823-shot7_0/img9.jpg,Images/MSR-VTT-videoTestVideo_video9823-shot7_0/img13.jpg,Images/MSR-VTT-videoTestVideo_video9823-shot7_0/img18.jpg,Images/MSR-VTT-videoTestVideo_video9823-shot7_0/img23.jpg,Images/MSR-VTT-videoTestVideo_video9823-shot7_0/img32.jpg,Images/MSR-VTT-videoTestVideo_video9823-shot7_0/img39.jpg,Images/MSR-VTT-videoTestVideo_video9823-shot7_0/img42.jpg,612,12,0,2022-06-15_12h06.26.690,annotation,2021.2.3,Win32,60.28817749,,
,,,,,,,,,,,,,,,,,-0.244305496,-0.140740738,1,0,0,image_6,0,33,33,6,1,568,A man has closed fist by his right cheek,H,0,6,MSR-VTT-videoTestVideo_video9203-shot1_0,Images/MSR-VTT-videoTestVideo_video9203-shot1_0/img0.jpg,Images/MSR-VTT-videoTestVideo_video9203-shot1_0/img6.jpg,Images/MSR-VTT-videoTestVideo_video9203-shot1_0/img38.jpg,Images/MSR-VTT-videoTestVideo_video9203-shot1_0/img86.jpg,Images/MSR-VTT-videoTestVideo_video9203-shot1_0/img100.jpg,Images/MSR-VTT-videoTestVideo_video9203-shot1_0/img149.jpg,Images/MSR-VTT-videoTestVideo_video9203-shot1_0/img187.jpg,Images/MSR-VTT-videoTestVideo_video9203-shot1_0/img201.jpg,Images/MSR-VTT-videoTestVideo_video9203-shot1_0/img250.jpg,Images/MSR-VTT-videoTestVideo_video9203-shot1_0/img311.jpg,1204,12,0,2022-06-15_12h06.26.690,annotation,2021.2.3,Win32,60.28817749,,
,,,,,,,,,,,,,,,,,-0.51375,-0.181481476,1,0,0,image_5,0,34,34,18,1,266,The very tiniest part of the upper bagel half is just off of the bottom of the picture.  A thumb is clearly seen next to the grill. ,H,1,5,video-storytelling-videocamping_dBXYM3dQTSo-shot69_5,Images/video-storytelling-videocamping_dBXYM3dQTSo-shot69_5/img256.jpg,Images/video-storytelling-videocamping_dBXYM3dQTSo-shot69_5/img262.jpg,Images/video-storytelling-videocamping_dBXYM3dQTSo-shot69_5/img265.jpg,Images/video-storytelling-videocamping_dBXYM3dQTSo-shot69_5/img269.jpg,Images/video-storytelling-videocamping_dBXYM3dQTSo-shot69_5/img272.jpg,Images/video-storytelling-videocamping_dBXYM3dQTSo-shot69_5/img274.jpg,Images/video-storytelling-videocamping_dBXYM3dQTSo-shot69_5/img278.jpg,Images/video-storytelling-videocamping_dBXYM3dQTSo-shot69_5/img279.jpg,Images/video-storytelling-videocamping_dBXYM3dQTSo-shot69_5/img280.jpg,Images/video-storytelling-videocamping_dBXYM3dQTSo-shot69_5/img282.jpg,1480,12,0,2022-06-15_12h06.26.690,annotation,2021.2.3,Win32,60.28817749,,
,,,,,,,,,,,,,,,,,0.001990814,0.197222214,1,0,0,image_2,0,35,35,61,1,3,A grey elephant with golden leaves on it. ,H,,2,open-images-1745_0ed62fe71809b2f5,Checks/check4/open-images-2609_3f72daeb23764ecfimg6.jpg,Checks/check4/open-images-1928_60679e2899870e08img1.jpg,Checks/check4/open-images-1745_0ed62fe71809b2f5img2.jpg,Checks/check4/open-images-1811_9ae6351c7f7565edimg0.jpg,Checks/check4/open-images-1721_6f04da11945ea492img3.jpg,Checks/check4/open-images-1907_5f9be3e4ea5e22c7img2.jpg,Checks/check4/open-images-580_0ddffb9c25141999img1.jpg,Checks/check4/open-images-2924_0645dcbcf998fed9img3.jpg,Checks/check4/open-images-869_856ecbcb5faf76e3img8.jpg,Checks/check4/open-images-250_02039517e63a91fbimg1.jpg,,,1,2022-06-15_12h06.26.690,annotation,2021.2.3,Win32,60.28817749,,
,,,,,,,,,,,,,,,,,-0.496157379,-0.177777786,1,0,0,image_5,0,36,36,35,1,307,A persons two fingers are all we are able to see of them here.,H,0,5,video-storytelling-videochristmas_5RR_sRzKODA-shot36_1,Images/video-storytelling-videochristmas_5RR_sRzKODA-shot36_1/img67.jpg,Images/video-storytelling-videochristmas_5RR_sRzKODA-shot36_1/img71.jpg,Images/video-storytelling-videochristmas_5RR_sRzKODA-shot36_1/img75.jpg,Images/video-storytelling-videochristmas_5RR_sRzKODA-shot36_1/img78.jpg,Images/video-storytelling-videochristmas_5RR_sRzKODA-shot36_1/img84.jpg,Images/video-storytelling-videochristmas_5RR_sRzKODA-shot36_1/img86.jpg,Images/video-storytelling-videochristmas_5RR_sRzKODA-shot36_1/img88.jpg,Images/video-storytelling-videochristmas_5RR_sRzKODA-shot36_1/img89.jpg,Images/video-storytelling-videochristmas_5RR_sRzKODA-shot36_1/img91.jpg,Images/video-storytelling-videochristmas_5RR_sRzKODA-shot36_1/img93.jpg,1925,12,0,2022-06-15_12h06.26.690,annotation,2021.2.3,Win32,60.28817749,,
,,,,,,,,,,,,,,,,,0.298287125,0.155555534,1,0,0,image_3,0,37,37,14,1,2022,A man standing in front of a table with a tray full of food.,M,1,3,MSR-VTT-videoTestVideo_video9537-shot0_0,Images/MSR-VTT-videoTestVideo_video9537-shot0_0/img0.jpg,Images/MSR-VTT-videoTestVideo_video9537-shot0_0/img9.jpg,Images/MSR-VTT-videoTestVideo_video9537-shot0_0/img10.jpg,Images/MSR-VTT-videoTestVideo_video9537-shot0_0/img13.jpg,Images/MSR-VTT-videoTestVideo_video9537-shot0_0/img14.jpg,Images/MSR-VTT-videoTestVideo_video9537-shot0_0/img15.jpg,Images/MSR-VTT-videoTestVideo_video9537-shot0_0/img18.jpg,Images/MSR-VTT-videoTestVideo_video9537-shot0_0/img20.jpg,Images/MSR-VTT-videoTestVideo_video9537-shot0_0/img21.jpg,Images/MSR-VTT-videoTestVideo_video9537-shot0_0/img43.jpg,2082,12,0,2022-06-15_12h06.26.690,annotation,2021.2.3,Win32,60.28817749,,
,,,,,,,,,,,,,,,,,0.286250076,0.120370369,1,0,0,image_3,0,38,38,41,1,985,"The hand at bottom left is grasping something white, but this person's face is unseen.",H,0,3,MSR-VTT-videoTestVideo_video7999-shot1_0,Images/MSR-VTT-videoTestVideo_video7999-shot1_0/img0.jpg,Images/MSR-VTT-videoTestVideo_video7999-shot1_0/img5.jpg,Images/MSR-VTT-videoTestVideo_video7999-shot1_0/img8.jpg,Images/MSR-VTT-videoTestVideo_video7999-shot1_0/img14.jpg,Images/MSR-VTT-videoTestVideo_video7999-shot1_0/img21.jpg,Images/MSR-VTT-videoTestVideo_video7999-shot1_0/img25.jpg,Images/MSR-VTT-videoTestVideo_video7999-shot1_0/img30.jpg,Images/MSR-VTT-videoTestVideo_video7999-shot1_0/img33.jpg,Images/MSR-VTT-videoTestVideo_video7999-shot1_0/img36.jpg,Images/MSR-VTT-videoTestVideo_video7999-shot1_0/img43.jpg,597,12,0,2022-06-15_12h06.26.690,annotation,2021.2.3,Win32,60.28817749,,
,,,,,,,,,,,,,,,,,0.013101959,0.149074059,1,0,0,image_2,0,39,39,58,1,0,Pair of black gloves,H,,2,open-images-510_3a241cb30d6e5319,Checks/check1/open-images-225_1442c0d0ef23d58bimg3.jpg,Checks/check1/open-images-2759_3a42708fe77398b7img8.jpg,Checks/check1/open-images-510_3a241cb30d6e5319img2.jpg,Checks/check1/open-images-2209_02c98146fb93ff17img1.jpg,Checks/check1/open-images-1553_0f128317e56a9d2fimg9.jpg,Checks/check1/open-images-2666_044d7c6d11e6b493img8.jpg,Checks/check1/open-images-2880_159294646083f545img4.jpg,Checks/check1/open-images-609_2dc0baa993a2bd25img5.jpg,Checks/check1/open-images-1854_2b15616b4f1080e7img2.jpg,Checks/check1/open-images-1435_1b0ce31951048765img8.jpg,,,1,2022-06-15_12h06.26.690,annotation,2021.2.3,Win32,60.28817749,,
,,,,,,,,,,,,,,,,,-0.51282402,0.112962914,1,0,0,image_0,0,40,40,43,1,1997,A group of people standing around in a room.,M,0,3,MSR-VTT-videoTestVideo_video8441-shot1_3,Images/MSR-VTT-videoTestVideo_video8441-shot1_3/img134.jpg,Images/MSR-VTT-videoTestVideo_video8441-shot1_3/img137.jpg,Images/MSR-VTT-videoTestVideo_video8441-shot1_3/img155.jpg,Images/MSR-VTT-videoTestVideo_video8441-shot1_3/img163.jpg,Images/MSR-VTT-videoTestVideo_video8441-shot1_3/img164.jpg,Images/MSR-VTT-videoTestVideo_video8441-shot1_3/img166.jpg,Images/MSR-VTT-videoTestVideo_video8441-shot1_3/img172.jpg,Images/MSR-VTT-videoTestVideo_video8441-shot1_3/img173.jpg,Images/MSR-VTT-videoTestVideo_video8441-shot1_3/img174.jpg,Images/MSR-VTT-videoTestVideo_video8441-shot1_3/img175.jpg,483,12,0,2022-06-15_12h06.26.690,annotation,2021.2.3,Win32,60.28817749,,
,,,,,,,,,,,,,,,,,-0.008194427,0.131481476,1,0,0,image_2,0,41,41,28,1,1493,A woman sitting on a bench next to a car.,M,0,4,video-storytelling-videocamping_1OzbiB1TIWI-shot17_3,Images/video-storytelling-videocamping_1OzbiB1TIWI-shot17_3/img147.jpg,Images/video-storytelling-videocamping_1OzbiB1TIWI-shot17_3/img148.jpg,Images/video-storytelling-videocamping_1OzbiB1TIWI-shot17_3/img149.jpg,Images/video-storytelling-videocamping_1OzbiB1TIWI-shot17_3/img152.jpg,Images/video-storytelling-videocamping_1OzbiB1TIWI-shot17_3/img153.jpg,Images/video-storytelling-videocamping_1OzbiB1TIWI-shot17_3/img156.jpg,Images/video-storytelling-videocamping_1OzbiB1TIWI-shot17_3/img157.jpg,Images/video-storytelling-videocamping_1OzbiB1TIWI-shot17_3/img159.jpg,Images/video-storytelling-videocamping_1OzbiB1TIWI-shot17_3/img161.jpg,Images/video-storytelling-videocamping_1OzbiB1TIWI-shot17_3/img166.jpg,1026,12,0,2022-06-15_12h06.26.690,annotation,2021.2.3,Win32,60.28817749,,
,,,,,,,,,,,,,,,,,0.024213028,0.150925903,1,0,0,image_2,0,42,42,36,1,344,There is a person in white on the far right side of the image. The left side of his body is cut off on the right but you can see his entire head.  ,H,0,2,video-storytelling-videowedding_Bp8t824h5NE-shot58_1,Images/video-storytelling-videowedding_Bp8t824h5NE-shot58_1/img27.jpg,Images/video-storytelling-videowedding_Bp8t824h5NE-shot58_1/img33.jpg,Images/video-storytelling-videowedding_Bp8t824h5NE-shot58_1/img45.jpg,Images/video-storytelling-videowedding_Bp8t824h5NE-shot58_1/img56.jpg,Images/video-storytelling-videowedding_Bp8t824h5NE-shot58_1/img58.jpg,Images/video-storytelling-videowedding_Bp8t824h5NE-shot58_1/img59.jpg,Images/video-storytelling-videowedding_Bp8t824h5NE-shot58_1/img62.jpg,Images/video-storytelling-videowedding_Bp8t824h5NE-shot58_1/img63.jpg,Images/video-storytelling-videowedding_Bp8t824h5NE-shot58_1/img65.jpg,Images/video-storytelling-videowedding_Bp8t824h5NE-shot58_1/img67.jpg,2008,12,0,2022-06-15_12h06.26.690,annotation,2021.2.3,Win32,60.28817749,,
,,,,,,,,,,,,,,,,,0.514953766,0.11203701,1,0,0,image_4,0,43,43,17,1,1320,A woman and a girl walking down a street.,M,0,4,MSR-VTT-videoTestVideo_video7848-shot1_0,Images/MSR-VTT-videoTestVideo_video7848-shot1_0/img0.jpg,Images/MSR-VTT-videoTestVideo_video7848-shot1_0/img28.jpg,Images/MSR-VTT-videoTestVideo_video7848-shot1_0/img49.jpg,Images/MSR-VTT-videoTestVideo_video7848-shot1_0/img74.jpg,Images/MSR-VTT-videoTestVideo_video7848-shot1_0/img101.jpg,Images/MSR-VTT-videoTestVideo_video7848-shot1_0/img118.jpg,Images/MSR-VTT-videoTestVideo_video7848-shot1_0/img130.jpg,Images/MSR-VTT-videoTestVideo_video7848-shot1_0/img143.jpg,Images/MSR-VTT-videoTestVideo_video7848-shot1_0/img151.jpg,Images/MSR-VTT-videoTestVideo_video7848-shot1_0/img154.jpg,1236,12,0,2022-06-15_12h06.26.690,annotation,2021.2.3,Win32,60.28817749,,
,,,,,,,,,,,,,,,,,-0.473935127,0.15,1,0,0,image_0,0,44,44,23,1,1610,A man standing next to a fence with a baseball bat in his hand.,M,0,4,video-storytelling-videocamping_dBXYM3dQTSo-shot74_0,Images/video-storytelling-videocamping_dBXYM3dQTSo-shot74_0/img0.jpg,Images/video-storytelling-videocamping_dBXYM3dQTSo-shot74_0/img3.jpg,Images/video-storytelling-videocamping_dBXYM3dQTSo-shot74_0/img5.jpg,Images/video-storytelling-videocamping_dBXYM3dQTSo-shot74_0/img6.jpg,Images/video-storytelling-videocamping_dBXYM3dQTSo-shot74_0/img7.jpg,Images/video-storytelling-videocamping_dBXYM3dQTSo-shot74_0/img8.jpg,Images/video-storytelling-videocamping_dBXYM3dQTSo-shot74_0/img9.jpg,Images/video-storytelling-videocamping_dBXYM3dQTSo-shot74_0/img10.jpg,Images/video-storytelling-videocamping_dBXYM3dQTSo-shot74_0/img12.jpg,Images/video-storytelling-videocamping_dBXYM3dQTSo-shot74_0/img15.jpg,1953,12,0,2022-06-15_12h06.26.690,annotation,2021.2.3,Win32,60.28817749,,
,,,,,,,,,,,,,,,,,0.28532402,-0.195370407,1,0,0,image_8,0,45,45,22,1,1354,A woman walking down a path with a cell phone in her hand.,M,0,4,video-storytelling-videowedding_46xhFCXBMJs-shot88_0,Images/video-storytelling-videowedding_46xhFCXBMJs-shot88_0/img0.jpg,Images/video-storytelling-videowedding_46xhFCXBMJs-shot88_0/img4.jpg,Images/video-storytelling-videowedding_46xhFCXBMJs-shot88_0/img6.jpg,Images/video-storytelling-videowedding_46xhFCXBMJs-shot88_0/img8.jpg,Images/video-storytelling-videowedding_46xhFCXBMJs-shot88_0/img10.jpg,Images/video-storytelling-videowedding_46xhFCXBMJs-shot88_0/img13.jpg,Images/video-storytelling-videowedding_46xhFCXBMJs-shot88_0/img19.jpg,Images/video-storytelling-videowedding_46xhFCXBMJs-shot88_0/img20.jpg,Images/video-storytelling-videowedding_46xhFCXBMJs-shot88_0/img24.jpg,Images/video-storytelling-videowedding_46xhFCXBMJs-shot88_0/img26.jpg,1526,12,0,2022-06-15_12h06.26.690,annotation,2021.2.3,Win32,60.28817749,,
,,,,,,,,,,,,,,,,,0.303842621,0.092592583,1,0,0,image_3,0,46,46,56,1,1767,A couple of people walking in the snow on a sunny day.,M,0,6,MSR-VTT-videoTestVideo_video9016-shot1_0,Images/MSR-VTT-videoTestVideo_video9016-shot1_0/img0.jpg,Images/MSR-VTT-videoTestVideo_video9016-shot1_0/img2.jpg,Images/MSR-VTT-videoTestVideo_video9016-shot1_0/img5.jpg,Images/MSR-VTT-videoTestVideo_video9016-shot1_0/img8.jpg,Images/MSR-VTT-videoTestVideo_video9016-shot1_0/img11.jpg,Images/MSR-VTT-videoTestVideo_video9016-shot1_0/img16.jpg,Images/MSR-VTT-videoTestVideo_video9016-shot1_0/img22.jpg,Images/MSR-VTT-videoTestVideo_video9016-shot1_0/img26.jpg,Images/MSR-VTT-videoTestVideo_video9016-shot1_0/img28.jpg,Images/MSR-VTT-videoTestVideo_video9016-shot1_0/img32.jpg,76,12,0,2022-06-15_12h06.26.690,annotation,2021.2.3,Win32,60.28817749,,
,,,,,,,,,,,,,,,,,-0.467453728,-0.190740738,1,0,0,image_5,0,47,47,53,1,1954,A woman standing next to a book in a room.,M,1,2,MSR-VTT-videoTestVideo_video7984-shot1_4,Images/MSR-VTT-videoTestVideo_video7984-shot1_4/img346.jpg,Images/MSR-VTT-videoTestVideo_video7984-shot1_4/img355.jpg,Images/MSR-VTT-videoTestVideo_video7984-shot1_4/img380.jpg,Images/MSR-VTT-videoTestVideo_video7984-shot1_4/img403.jpg,Images/MSR-VTT-videoTestVideo_video7984-shot1_4/img423.jpg,Images/MSR-VTT-videoTestVideo_video7984-shot1_4/img438.jpg,Images/MSR-VTT-videoTestVideo_video7984-shot1_4/img446.jpg,Images/MSR-VTT-videoTestVideo_video7984-shot1_4/img450.jpg,Images/MSR-VTT-videoTestVideo_video7984-shot1_4/img454.jpg,Images/MSR-VTT-videoTestVideo_video7984-shot1_4/img466.jpg,626,12,0,2022-06-15_12h06.26.690,annotation,2021.2.3,Win32,60.28817749,,
,,,,,,,,,,,,,,,,,-0.498009224,-0.135185204,1,0,0,image_5,0,48,48,57,1,694,Three men are standing in a group. The man in the middle has his right arm straight out touching the chest of the man on the left. His hand and fingers are visible. The man on the right has his mouth open.,H,0,5,MSR-VTT-videoTestVideo_video9823-shot7_0,Images/MSR-VTT-videoTestVideo_video9823-shot7_0/img0.jpg,Images/MSR-VTT-videoTestVideo_video9823-shot7_0/img1.jpg,Images/MSR-VTT-videoTestVideo_video9823-shot7_0/img3.jpg,Images/MSR-VTT-videoTestVideo_video9823-shot7_0/img9.jpg,Images/MSR-VTT-videoTestVideo_video9823-shot7_0/img13.jpg,Images/MSR-VTT-videoTestVideo_video9823-shot7_0/img18.jpg,Images/MSR-VTT-videoTestVideo_video9823-shot7_0/img23.jpg,Images/MSR-VTT-videoTestVideo_video9823-shot7_0/img32.jpg,Images/MSR-VTT-videoTestVideo_video9823-shot7_0/img39.jpg,Images/MSR-VTT-videoTestVideo_video9823-shot7_0/img42.jpg,59,12,0,2022-06-15_12h06.26.690,annotation,2021.2.3,Win32,60.28817749,,
,,,,,,,,,,,,,,,,,-0.288749962,-0.115740776,1,0,0,image_6,0,49,49,55,1,1341,A dog that is standing in a room.,M,0,9,MSR-VTT-videoTestVideo_video9415-shot1_8,Images/MSR-VTT-videoTestVideo_video9415-shot1_8/img262.jpg,Images/MSR-VTT-videoTestVideo_video9415-shot1_8/img264.jpg,Images/MSR-VTT-videoTestVideo_video9415-shot1_8/img267.jpg,Images/MSR-VTT-videoTestVideo_video9415-shot1_8/img268.jpg,Images/MSR-VTT-videoTestVideo_video9415-shot1_8/img270.jpg,Images/MSR-VTT-videoTestVideo_video9415-shot1_8/img271.jpg,Images/MSR-VTT-videoTestVideo_video9415-shot1_8/img273.jpg,Images/MSR-VTT-videoTestVideo_video9415-shot1_8/img274.jpg,Images/MSR-VTT-videoTestVideo_video9415-shot1_8/img278.jpg,Images/MSR-VTT-videoTestVideo_video9415-shot1_8/img285.jpg,29,12,0,2022-06-15_12h06.26.690,annotation,2021.2.3,Win32,60.28817749,,
,,,,,,,,,,,,,,,,,0.504768524,0.113888855,1,0,0,image_4,0,50,50,31,1,107,A camera is flashing about one head length to the left of the woman in the center of the image,H,0,3,MSR-VTT-videoTestVideo_video7522-shot4_3,Images/MSR-VTT-videoTestVideo_video7522-shot4_3/img100.jpg,Images/MSR-VTT-videoTestVideo_video7522-shot4_3/img102.jpg,Images/MSR-VTT-videoTestVideo_video7522-shot4_3/img104.jpg,Images/MSR-VTT-videoTestVideo_video7522-shot4_3/img107.jpg,Images/MSR-VTT-videoTestVideo_video7522-shot4_3/img112.jpg,Images/MSR-VTT-videoTestVideo_video7522-shot4_3/img115.jpg,Images/MSR-VTT-videoTestVideo_video7522-shot4_3/img121.jpg,Images/MSR-VTT-videoTestVideo_video7522-shot4_3/img122.jpg,Images/MSR-VTT-videoTestVideo_video7522-shot4_3/img126.jpg,Images/MSR-VTT-videoTestVideo_video7522-shot4_3/img127.jpg,916,12,0,2022-06-15_12h06.26.690,annotation,2021.2.3,Win32,60.28817749,,
,,,,,,,,,,,,,,,,,-0.243379593,0.181481495,1,0,0,image_1,0,51,51,46,1,229,The girl's left eyebrow is still visible but the eye has been covered up by the blindfold. ,H,0,1,video-storytelling-videobirthday__amwPjAcoC8-shot79_1,Images/video-storytelling-videobirthday__amwPjAcoC8-shot79_1/img35.jpg,Images/video-storytelling-videobirthday__amwPjAcoC8-shot79_1/img38.jpg,Images/video-storytelling-videobirthday__amwPjAcoC8-shot79_1/img43.jpg,Images/video-storytelling-videobirthday__amwPjAcoC8-shot79_1/img49.jpg,Images/video-storytelling-videobirthday__amwPjAcoC8-shot79_1/img54.jpg,Images/video-storytelling-videobirthday__amwPjAcoC8-shot79_1/img59.jpg,Images/video-storytelling-videobirthday__amwPjAcoC8-shot79_1/img62.jpg,Images/video-storytelling-videobirthday__amwPjAcoC8-shot79_1/img71.jpg,Images/video-storytelling-videobirthday__amwPjAcoC8-shot79_1/img77.jpg,Images/video-storytelling-videobirthday__amwPjAcoC8-shot79_1/img80.jpg,664,12,0,2022-06-15_12h06.26.690,annotation,2021.2.3,Win32,60.28817749,,
,,,,,,,,,,,,,,,,,-0.234120331,-0.212037048,1,0,0,image_6,0,52,52,26,1,1481,A dog is laying on the floor next to a pair of scissors.,M,0,7,MSR-VTT-videoTestVideo_video9921-shot1_3,Images/MSR-VTT-videoTestVideo_video9921-shot1_3/img277.jpg,Images/MSR-VTT-videoTestVideo_video9921-shot1_3/img278.jpg,Images/MSR-VTT-videoTestVideo_video9921-shot1_3/img279.jpg,Images/MSR-VTT-videoTestVideo_video9921-shot1_3/img281.jpg,Images/MSR-VTT-videoTestVideo_video9921-shot1_3/img282.jpg,Images/MSR-VTT-videoTestVideo_video9921-shot1_3/img284.jpg,Images/MSR-VTT-videoTestVideo_video9921-shot1_3/img287.jpg,Images/MSR-VTT-videoTestVideo_video9921-shot1_3/img290.jpg,Images/MSR-VTT-videoTestVideo_video9921-shot1_3/img297.jpg,Images/MSR-VTT-videoTestVideo_video9921-shot1_3/img309.jpg,1511,12,0,2022-06-15_12h06.26.690,annotation,2021.2.3,Win32,60.28817749,,
,,,,,,,,,,,,,,,,,0.006620407,0.109259224,1,0,0,image_2,0,53,53,2,1,924,The bride has her hands together and is not touching or reaching out to the groom. The bride and groom are looking at each other.,H,0,2,video-storytelling-videowedding_Bp8t824h5NE-shot69_0,Images/video-storytelling-videowedding_Bp8t824h5NE-shot69_0/img0.jpg,Images/video-storytelling-videowedding_Bp8t824h5NE-shot69_0/img13.jpg,Images/video-storytelling-videowedding_Bp8t824h5NE-shot69_0/img95.jpg,Images/video-storytelling-videowedding_Bp8t824h5NE-shot69_0/img130.jpg,Images/video-storytelling-videowedding_Bp8t824h5NE-shot69_0/img145.jpg,Images/video-storytelling-videowedding_Bp8t824h5NE-shot69_0/img152.jpg,Images/video-storytelling-videowedding_Bp8t824h5NE-shot69_0/img164.jpg,Images/video-storytelling-videowedding_Bp8t824h5NE-shot69_0/img195.jpg,Images/video-storytelling-videowedding_Bp8t824h5NE-shot69_0/img205.jpg,Images/video-storytelling-videowedding_Bp8t824h5NE-shot69_0/img226.jpg,2045,12,0,2022-06-15_12h06.26.690,annotation,2021.2.3,Win32,60.28817749,,
,,,,,,,,,,,,,,,,,0.255694504,0.12870369,1,0,0,image_3,0,54,54,15,1,793,The hat is falling down right at the waist of the man on the bicycle.,H,1,3,MSR-VTT-videoTestVideo_video8513-shot4_1,Images/MSR-VTT-videoTestVideo_video8513-shot4_1/img132.jpg,Images/MSR-VTT-videoTestVideo_video8513-shot4_1/img140.jpg,Images/MSR-VTT-videoTestVideo_video8513-shot4_1/img159.jpg,Images/MSR-VTT-videoTestVideo_video8513-shot4_1/img165.jpg,Images/MSR-VTT-videoTestVideo_video8513-shot4_1/img169.jpg,Images/MSR-VTT-videoTestVideo_video8513-shot4_1/img173.jpg,Images/MSR-VTT-videoTestVideo_video8513-shot4_1/img179.jpg,Images/MSR-VTT-videoTestVideo_video8513-shot4_1/img187.jpg,Images/MSR-VTT-videoTestVideo_video8513-shot4_1/img189.jpg,Images/MSR-VTT-videoTestVideo_video8513-shot4_1/img195.jpg,685,12,0,2022-06-15_12h06.26.690,annotation,2021.2.3,Win32,60.28817749,,
,,,,,,,,,,,,,,,,,-0.173009262,0.138888855,1,0,0,image_1,0,55,55,1,1,727,His mouth is open wide but only his top teeth are showing.,H,1,1,MSR-VTT-videoTestVideo_video9484-shot2_0,Images/MSR-VTT-videoTestVideo_video9484-shot2_0/img0.jpg,Images/MSR-VTT-videoTestVideo_video9484-shot2_0/img5.jpg,Images/MSR-VTT-videoTestVideo_video9484-shot2_0/img9.jpg,Images/MSR-VTT-videoTestVideo_video9484-shot2_0/img17.jpg,Images/MSR-VTT-videoTestVideo_video9484-shot2_0/img24.jpg,Images/MSR-VTT-videoTestVideo_video9484-shot2_0/img27.jpg,Images/MSR-VTT-videoTestVideo_video9484-shot2_0/img32.jpg,Images/MSR-VTT-videoTestVideo_video9484-shot2_0/img35.jpg,Images/MSR-VTT-videoTestVideo_video9484-shot2_0/img40.jpg,Images/MSR-VTT-videoTestVideo_video9484-shot2_0/img42.jpg,1218,12,0,2022-06-15_12h06.26.690,annotation,2021.2.3,Win32,60.28817749,,
,,,,,,,,,,,,,,,,,0.029768524,-0.149074097,1,0,0,image_7,0,56,56,10,1,431,The dog is facing to the right of the picture. The front right leg of the dog is fully visible and but touched by the finger. ,H,0,7,MSR-VTT-videoTestVideo_video8773-shot1_3,Images/MSR-VTT-videoTestVideo_video8773-shot1_3/img278.jpg,Images/MSR-VTT-videoTestVideo_video8773-shot1_3/img294.jpg,Images/MSR-VTT-videoTestVideo_video8773-shot1_3/img305.jpg,Images/MSR-VTT-videoTestVideo_video8773-shot1_3/img315.jpg,Images/MSR-VTT-videoTestVideo_video8773-shot1_3/img325.jpg,Images/MSR-VTT-videoTestVideo_video8773-shot1_3/img339.jpg,Images/MSR-VTT-videoTestVideo_video8773-shot1_3/img349.jpg,Images/MSR-VTT-videoTestVideo_video8773-shot1_3/img380.jpg,Images/MSR-VTT-videoTestVideo_video8773-shot1_3/img386.jpg,Images/MSR-VTT-videoTestVideo_video8773-shot1_3/img401.jpg,836,12,0,2022-06-15_12h06.26.690,annotation,2021.2.3,Win32,60.28817749,,
,,,,,,,,,,,,,,,,,-0.039675827,-0.151851883,1,0,0,image_7,0,57,57,12,1,2028,A boy standing next to a plate of food on a table.,M,0,4,video-storytelling-videobirthday__amwPjAcoC8-shot39_3,Images/video-storytelling-videobirthday__amwPjAcoC8-shot39_3/img89.jpg,Images/video-storytelling-videobirthday__amwPjAcoC8-shot39_3/img91.jpg,Images/video-storytelling-videobirthday__amwPjAcoC8-shot39_3/img93.jpg,Images/video-storytelling-videobirthday__amwPjAcoC8-shot39_3/img100.jpg,Images/video-storytelling-videobirthday__amwPjAcoC8-shot39_3/img102.jpg,Images/video-storytelling-videobirthday__amwPjAcoC8-shot39_3/img105.jpg,Images/video-storytelling-videobirthday__amwPjAcoC8-shot39_3/img108.jpg,Images/video-storytelling-videobirthday__amwPjAcoC8-shot39_3/img110.jpg,Images/video-storytelling-videobirthday__amwPjAcoC8-shot39_3/img112.jpg,Images/video-storytelling-videobirthday__amwPjAcoC8-shot39_3/img114.jpg,2077,12,0,2022-06-15_12h06.26.690,annotation,2021.2.3,Win32,60.28817749,,
,,,,,,,,,,,,,,,,,-0.27671299,0.177777748,1,0,0,image_1,0,58,58,62,1,4,A penguin holding a piece of paper with text on it. ,H,,1,open-images-2521_074d6af730ed17a6,Checks/check5/open-images-509_4d8bd994cb8c6eaeimg0.jpg,Checks/check5/open-images-2521_074d6af730ed17a6img1.jpg,Checks/check5/open-images-1365_a00a5fde334ae45aimg4.jpg,Checks/check5/open-images-1602_44092afdeab39e73img6.jpg,Checks/check5/open-images-1032_059f3cdfb85ee0ceimg3.jpg,Checks/check5/open-images-727_25b77fff36adba66img2.jpg,Checks/check5/open-images-2208_0fb92b9978d98575img2.jpg,Checks/check5/open-images-1305_05769e6abb16fdc8img9.jpg,Checks/check5/open-images-2676_052dbf7b4899430bimg1.jpg,Checks/check5/open-images-2569_1e81d79bb796a2dbimg7.jpg,,,1,2022-06-15_12h06.26.690,annotation,2021.2.3,Win32,60.28817749,,
,,,,,,,,,,,,,,,,,0.03717598,-0.178703766,1,0,0,image_7,0,59,59,32,1,1559,A close up of a child with hair on her head.,M,0,7,MSR-VTT-videoTestVideo_video8496-shot1_0,Images/MSR-VTT-videoTestVideo_video8496-shot1_0/img0.jpg,Images/MSR-VTT-videoTestVideo_video8496-shot1_0/img4.jpg,Images/MSR-VTT-videoTestVideo_video8496-shot1_0/img6.jpg,Images/MSR-VTT-videoTestVideo_video8496-shot1_0/img7.jpg,Images/MSR-VTT-videoTestVideo_video8496-shot1_0/img9.jpg,Images/MSR-VTT-videoTestVideo_video8496-shot1_0/img11.jpg,Images/MSR-VTT-videoTestVideo_video8496-shot1_0/img18.jpg,Images/MSR-VTT-videoTestVideo_video8496-shot1_0/img27.jpg,Images/MSR-VTT-videoTestVideo_video8496-shot1_0/img69.jpg,Images/MSR-VTT-videoTestVideo_video8496-shot1_0/img75.jpg,740,12,0,2022-06-15_12h06.26.690,annotation,2021.2.3,Win32,60.28817749,,
,,,,,,,,,,,,,,,,,0.492731476,-0.131481514,1,0,0,image_9,0,60,60,44,1,1781,A motorcyclist riding on a dirt bike in the middle of a muddy road.,M,1,3,MSR-VTT-videoTestVideo_video8882-shot0_0,Images/MSR-VTT-videoTestVideo_video8882-shot0_0/img0.jpg,Images/MSR-VTT-videoTestVideo_video8882-shot0_0/img3.jpg,Images/MSR-VTT-videoTestVideo_video8882-shot0_0/img6.jpg,Images/MSR-VTT-videoTestVideo_video8882-shot0_0/img10.jpg,Images/MSR-VTT-videoTestVideo_video8882-shot0_0/img11.jpg,Images/MSR-VTT-videoTestVideo_video8882-shot0_0/img14.jpg,Images/MSR-VTT-videoTestVideo_video8882-shot0_0/img21.jpg,Images/MSR-VTT-videoTestVideo_video8882-shot0_0/img28.jpg,Images/MSR-VTT-videoTestVideo_video8882-shot0_0/img37.jpg,Images/MSR-VTT-videoTestVideo_video8882-shot0_0/img46.jpg,437,12,0,2022-06-15_12h06.26.690,annotation,2021.2.3,Win32,60.28817749,,
,,,,,,,,,,,,,,,,,0.523287048,-0.183333359,1,0,0,image_9,0,61,61,0,1,1712,A man in a grassy field throwing a Frisbee.,M,0,2,MSR-VTT-videoTestVideo_video9876-shot1_0,Images/MSR-VTT-videoTestVideo_video9876-shot1_0/img0.jpg,Images/MSR-VTT-videoTestVideo_video9876-shot1_0/img2.jpg,Images/MSR-VTT-videoTestVideo_video9876-shot1_0/img4.jpg,Images/MSR-VTT-videoTestVideo_video9876-shot1_0/img6.jpg,Images/MSR-VTT-videoTestVideo_video9876-shot1_0/img7.jpg,Images/MSR-VTT-videoTestVideo_video9876-shot1_0/img9.jpg,Images/MSR-VTT-videoTestVideo_video9876-shot1_0/img13.jpg,Images/MSR-VTT-videoTestVideo_video9876-shot1_0/img17.jpg,Images/MSR-VTT-videoTestVideo_video9876-shot1_0/img19.jpg,Images/MSR-VTT-videoTestVideo_video9876-shot1_0/img21.jpg,810,12,0,2022-06-15_12h06.26.690,annotation,2021.2.3,Win32,60.28817749,,
,,,,,,,,,,,,,,,,,0.288101883,0.191666679,1,0,0,image_3,0,62,62,20,1,591,You can't quite see the cartoon pirate riding an object in the shot yet.  Only the front 1/4 of that object the pirate is riding on can be seen. ,H,1,3,MSR-VTT-videoTestVideo_video7807-shot2_0,Images/MSR-VTT-videoTestVideo_video7807-shot2_0/img0.jpg,Images/MSR-VTT-videoTestVideo_video7807-shot2_0/img29.jpg,Images/MSR-VTT-videoTestVideo_video7807-shot2_0/img67.jpg,Images/MSR-VTT-videoTestVideo_video7807-shot2_0/img88.jpg,Images/MSR-VTT-videoTestVideo_video7807-shot2_0/img109.jpg,Images/MSR-VTT-videoTestVideo_video7807-shot2_0/img118.jpg,Images/MSR-VTT-videoTestVideo_video7807-shot2_0/img138.jpg,Images/MSR-VTT-videoTestVideo_video7807-shot2_0/img151.jpg,Images/MSR-VTT-videoTestVideo_video7807-shot2_0/img199.jpg,Images/MSR-VTT-videoTestVideo_video7807-shot2_0/img209.jpg,966,12,0,2022-06-15_12h06.26.690,annotation,2021.2.3,Win32,60.28817749,,
,,,,,,,,,,,,,,,,,,,,,,,,,,,,,,,,,,,,,,,,,,,,,,,2022-06-15_12h06.26.690,annotation,2021.2.3,Win32,60.28817749,space,23.7348
