mturk,key_resp_2.keys,key_resp_2.rt,key_resp_3.keys,key_resp_3.rt,mouse_2.x,mouse_2.y,mouse_2.leftButton,mouse_2.midButton,mouse_2.rightButton,mouse_2.clicked_name,key_resp_5.keys,key_resp_5.rt,key_resp.keys,key_resp.rt,key_resp_6.keys,key_resp_6.rt,mouse.x,mouse.y,mouse.leftButton,mouse.midButton,mouse.rightButton,mouse.clicked_name,trials.thisRepN,trials.thisTrialN,trials.thisN,trials.thisIndex,trials.ran,N,caption,class_caption,model_guessed,target_idx,image_set,img1,img2,img3,img4,img5,img6,img7,img8,img9,img10,Q_id,block,is_check,date,expName,psychopyVersion,OS,frameRate,key_resp_7.keys,key_resp_7.rt
2264437,space,1.4321,space,0.1158,0.27734375,0.059895833,1,0,0,ex4,space,0.6473,space,0.2073,space,0.1673,0.05078125,0.104166667,1,0,0,image_2,0,0,0,12,1,332,The man is looking at the camera with his left pointer finger touching the cutting board.,H,0,3,MSR-VTT-videoTestVideo_video7939-shot1_0,Images/MSR-VTT-videoTestVideo_video7939-shot1_0/img0.jpg,Images/MSR-VTT-videoTestVideo_video7939-shot1_0/img6.jpg,Images/MSR-VTT-videoTestVideo_video7939-shot1_0/img29.jpg,Images/MSR-VTT-videoTestVideo_video7939-shot1_0/img62.jpg,Images/MSR-VTT-videoTestVideo_video7939-shot1_0/img81.jpg,Images/MSR-VTT-videoTestVideo_video7939-shot1_0/img101.jpg,Images/MSR-VTT-videoTestVideo_video7939-shot1_0/img113.jpg,Images/MSR-VTT-videoTestVideo_video7939-shot1_0/img125.jpg,Images/MSR-VTT-videoTestVideo_video7939-shot1_0/img184.jpg,Images/MSR-VTT-videoTestVideo_video7939-shot1_0/img201.jpg,428,29,0,2022-06-13_07h06.01.594,annotation,2021.2.3,Win32,20.07024586,,
,,,,,,,,,,,,,,,,,0.05078125,0.104166667,1,0,0,image_2,0,1,1,27,1,814,a girl squats next to a dog with the very top of her head not visible,H,0,1,MSR-VTT-videoTestVideo_video7268-shot1_8,Images/MSR-VTT-videoTestVideo_video7268-shot1_8/img409.jpg,Images/MSR-VTT-videoTestVideo_video7268-shot1_8/img412.jpg,Images/MSR-VTT-videoTestVideo_video7268-shot1_8/img414.jpg,Images/MSR-VTT-videoTestVideo_video7268-shot1_8/img415.jpg,Images/MSR-VTT-videoTestVideo_video7268-shot1_8/img417.jpg,Images/MSR-VTT-videoTestVideo_video7268-shot1_8/img420.jpg,Images/MSR-VTT-videoTestVideo_video7268-shot1_8/img426.jpg,Images/MSR-VTT-videoTestVideo_video7268-shot1_8/img429.jpg,Images/MSR-VTT-videoTestVideo_video7268-shot1_8/img433.jpg,Images/MSR-VTT-videoTestVideo_video7268-shot1_8/img437.jpg,1422,29,0,2022-06-13_07h06.01.594,annotation,2021.2.3,Win32,20.07024586,,
,,,,,,,,,,,,,,,,,0.05078125,0.104166667,1,0,0,image_2,0,2,2,61,1,3,A grey elephant with golden leaves on it. ,H,,2,open-images-1745_0ed62fe71809b2f5,Checks/check4/open-images-2609_3f72daeb23764ecfimg6.jpg,Checks/check4/open-images-1928_60679e2899870e08img1.jpg,Checks/check4/open-images-1745_0ed62fe71809b2f5img2.jpg,Checks/check4/open-images-1811_9ae6351c7f7565edimg0.jpg,Checks/check4/open-images-1721_6f04da11945ea492img3.jpg,Checks/check4/open-images-1907_5f9be3e4ea5e22c7img2.jpg,Checks/check4/open-images-580_0ddffb9c25141999img1.jpg,Checks/check4/open-images-2924_0645dcbcf998fed9img3.jpg,Checks/check4/open-images-869_856ecbcb5faf76e3img8.jpg,Checks/check4/open-images-250_02039517e63a91fbimg1.jpg,,,1,2022-06-13_07h06.01.594,annotation,2021.2.3,Win32,20.07024586,,
,,,,,,,,,,,,,,,,,0.05078125,0.104166667,1,0,0,image_2,0,3,3,62,1,4,A penguin holding a piece of paper with text on it. ,H,,1,open-images-2521_074d6af730ed17a6,Checks/check5/open-images-509_4d8bd994cb8c6eaeimg0.jpg,Checks/check5/open-images-2521_074d6af730ed17a6img1.jpg,Checks/check5/open-images-1365_a00a5fde334ae45aimg4.jpg,Checks/check5/open-images-1602_44092afdeab39e73img6.jpg,Checks/check5/open-images-1032_059f3cdfb85ee0ceimg3.jpg,Checks/check5/open-images-727_25b77fff36adba66img2.jpg,Checks/check5/open-images-2208_0fb92b9978d98575img2.jpg,Checks/check5/open-images-1305_05769e6abb16fdc8img9.jpg,Checks/check5/open-images-2676_052dbf7b4899430bimg1.jpg,Checks/check5/open-images-2569_1e81d79bb796a2dbimg7.jpg,,,1,2022-06-13_07h06.01.594,annotation,2021.2.3,Win32,20.07024586,,
,,,,,,,,,,,,,,,,,0.05078125,0.104166667,1,0,0,image_2,0,4,4,44,1,2004,A man standing next to a woman holding an umbrella.,M,0,6,video-storytelling-videowedding_de8dLXvgV-I-shot5_6,Images/video-storytelling-videowedding_de8dLXvgV-I-shot5_6/img248.jpg,Images/video-storytelling-videowedding_de8dLXvgV-I-shot5_6/img250.jpg,Images/video-storytelling-videowedding_de8dLXvgV-I-shot5_6/img253.jpg,Images/video-storytelling-videowedding_de8dLXvgV-I-shot5_6/img254.jpg,Images/video-storytelling-videowedding_de8dLXvgV-I-shot5_6/img256.jpg,Images/video-storytelling-videowedding_de8dLXvgV-I-shot5_6/img260.jpg,Images/video-storytelling-videowedding_de8dLXvgV-I-shot5_6/img265.jpg,Images/video-storytelling-videowedding_de8dLXvgV-I-shot5_6/img267.jpg,Images/video-storytelling-videowedding_de8dLXvgV-I-shot5_6/img269.jpg,Images/video-storytelling-videowedding_de8dLXvgV-I-shot5_6/img273.jpg,532,29,0,2022-06-13_07h06.01.594,annotation,2021.2.3,Win32,20.07024586,,
,,,,,,,,,,,,,,,,,0.05078125,0.104166667,1,0,0,image_2,0,5,5,30,1,669,"The man is pretty much centered in the picture, there is white writing at the bottom right. His head is covering most of the silver pole behind him but it's still visible to the left of his cheek.",H,0,5,MSR-VTT-videoTestVideo_video9608-shot8_0,Images/MSR-VTT-videoTestVideo_video9608-shot8_0/img0.jpg,Images/MSR-VTT-videoTestVideo_video9608-shot8_0/img10.jpg,Images/MSR-VTT-videoTestVideo_video9608-shot8_0/img24.jpg,Images/MSR-VTT-videoTestVideo_video9608-shot8_0/img28.jpg,Images/MSR-VTT-videoTestVideo_video9608-shot8_0/img34.jpg,Images/MSR-VTT-videoTestVideo_video9608-shot8_0/img39.jpg,Images/MSR-VTT-videoTestVideo_video9608-shot8_0/img46.jpg,Images/MSR-VTT-videoTestVideo_video9608-shot8_0/img51.jpg,Images/MSR-VTT-videoTestVideo_video9608-shot8_0/img74.jpg,Images/MSR-VTT-videoTestVideo_video9608-shot8_0/img83.jpg,538,29,0,2022-06-13_07h06.01.594,annotation,2021.2.3,Win32,20.07024586,,
,,,,,,,,,,,,,,,,,0.05078125,0.104166667,1,0,0,image_2,0,6,6,36,1,1371,A man holding an umbrella in front of a woman holding an umbrella.,M,0,6,video-storytelling-videowedding_de8dLXvgV-I-shot13_0,Images/video-storytelling-videowedding_de8dLXvgV-I-shot13_0/img0.jpg,Images/video-storytelling-videowedding_de8dLXvgV-I-shot13_0/img2.jpg,Images/video-storytelling-videowedding_de8dLXvgV-I-shot13_0/img6.jpg,Images/video-storytelling-videowedding_de8dLXvgV-I-shot13_0/img9.jpg,Images/video-storytelling-videowedding_de8dLXvgV-I-shot13_0/img14.jpg,Images/video-storytelling-videowedding_de8dLXvgV-I-shot13_0/img17.jpg,Images/video-storytelling-videowedding_de8dLXvgV-I-shot13_0/img21.jpg,Images/video-storytelling-videowedding_de8dLXvgV-I-shot13_0/img24.jpg,Images/video-storytelling-videowedding_de8dLXvgV-I-shot13_0/img27.jpg,Images/video-storytelling-videowedding_de8dLXvgV-I-shot13_0/img29.jpg,941,29,0,2022-06-13_07h06.01.594,annotation,2021.2.3,Win32,20.07024586,,
,,,,,,,,,,,,,,,,,0.05078125,0.104166667,1,0,0,image_2,0,7,7,39,1,881,The air conditioner and black button are visible in the upper left corner.,H,0,4,MSR-VTT-videoTestVideo_video7059-shot1_1,Images/MSR-VTT-videoTestVideo_video7059-shot1_1/img413.jpg,Images/MSR-VTT-videoTestVideo_video7059-shot1_1/img426.jpg,Images/MSR-VTT-videoTestVideo_video7059-shot1_1/img440.jpg,Images/MSR-VTT-videoTestVideo_video7059-shot1_1/img449.jpg,Images/MSR-VTT-videoTestVideo_video7059-shot1_1/img467.jpg,Images/MSR-VTT-videoTestVideo_video7059-shot1_1/img487.jpg,Images/MSR-VTT-videoTestVideo_video7059-shot1_1/img496.jpg,Images/MSR-VTT-videoTestVideo_video7059-shot1_1/img500.jpg,Images/MSR-VTT-videoTestVideo_video7059-shot1_1/img525.jpg,Images/MSR-VTT-videoTestVideo_video7059-shot1_1/img540.jpg,1970,29,0,2022-06-13_07h06.01.594,annotation,2021.2.3,Win32,20.07024586,,
,,,,,,,,,,,,,,,,,0.05078125,0.104166667,1,0,0,image_2,0,8,8,20,1,1412,A picture of a person standing next to a racetrack.,M,1,5,MSR-VTT-videoTestVideo_video7168-shot1_1,Images/MSR-VTT-videoTestVideo_video7168-shot1_1/img148.jpg,Images/MSR-VTT-videoTestVideo_video7168-shot1_1/img161.jpg,Images/MSR-VTT-videoTestVideo_video7168-shot1_1/img169.jpg,Images/MSR-VTT-videoTestVideo_video7168-shot1_1/img174.jpg,Images/MSR-VTT-videoTestVideo_video7168-shot1_1/img180.jpg,Images/MSR-VTT-videoTestVideo_video7168-shot1_1/img185.jpg,Images/MSR-VTT-videoTestVideo_video7168-shot1_1/img188.jpg,Images/MSR-VTT-videoTestVideo_video7168-shot1_1/img192.jpg,Images/MSR-VTT-videoTestVideo_video7168-shot1_1/img193.jpg,Images/MSR-VTT-videoTestVideo_video7168-shot1_1/img195.jpg,209,29,0,2022-06-13_07h06.01.594,annotation,2021.2.3,Win32,20.07024586,,
,,,,,,,,,,,,,,,,,0.05078125,0.104166667,1,0,0,image_2,0,9,9,4,1,24,The thumbs appear to be touching on the two hands. ,H,0,6,MSR-VTT-videoTestVideo_video9799-shot1_0,Images/MSR-VTT-videoTestVideo_video9799-shot1_0/img0.jpg,Images/MSR-VTT-videoTestVideo_video9799-shot1_0/img24.jpg,Images/MSR-VTT-videoTestVideo_video9799-shot1_0/img34.jpg,Images/MSR-VTT-videoTestVideo_video9799-shot1_0/img36.jpg,Images/MSR-VTT-videoTestVideo_video9799-shot1_0/img37.jpg,Images/MSR-VTT-videoTestVideo_video9799-shot1_0/img38.jpg,Images/MSR-VTT-videoTestVideo_video9799-shot1_0/img39.jpg,Images/MSR-VTT-videoTestVideo_video9799-shot1_0/img43.jpg,Images/MSR-VTT-videoTestVideo_video9799-shot1_0/img46.jpg,Images/MSR-VTT-videoTestVideo_video9799-shot1_0/img49.jpg,702,29,0,2022-06-13_07h06.01.594,annotation,2021.2.3,Win32,20.07024586,,
,,,,,,,,,,,,,,,,,0.05078125,0.104166667,1,0,0,image_2,0,10,10,32,1,458,The kayakers in the front has a yellow buoy near the back of the boat. ,H,0,6,MSR-VTT-videoTestVideo_video8079-shot1_0,Images/MSR-VTT-videoTestVideo_video8079-shot1_0/img0.jpg,Images/MSR-VTT-videoTestVideo_video8079-shot1_0/img6.jpg,Images/MSR-VTT-videoTestVideo_video8079-shot1_0/img12.jpg,Images/MSR-VTT-videoTestVideo_video8079-shot1_0/img19.jpg,Images/MSR-VTT-videoTestVideo_video8079-shot1_0/img21.jpg,Images/MSR-VTT-videoTestVideo_video8079-shot1_0/img36.jpg,Images/MSR-VTT-videoTestVideo_video8079-shot1_0/img50.jpg,Images/MSR-VTT-videoTestVideo_video8079-shot1_0/img69.jpg,Images/MSR-VTT-videoTestVideo_video8079-shot1_0/img85.jpg,Images/MSR-VTT-videoTestVideo_video8079-shot1_0/img88.jpg,959,29,0,2022-06-13_07h06.01.594,annotation,2021.2.3,Win32,20.07024586,,
,,,,,,,,,,,,,,,,,0.05078125,0.104166667,1,0,0,image_2,0,11,11,25,1,1231,A person is jumping on a skateboard in a box.,M,0,6,MSR-VTT-videoTestVideo_video7476-shot1_6,Images/MSR-VTT-videoTestVideo_video7476-shot1_6/img211.jpg,Images/MSR-VTT-videoTestVideo_video7476-shot1_6/img213.jpg,Images/MSR-VTT-videoTestVideo_video7476-shot1_6/img215.jpg,Images/MSR-VTT-videoTestVideo_video7476-shot1_6/img218.jpg,Images/MSR-VTT-videoTestVideo_video7476-shot1_6/img222.jpg,Images/MSR-VTT-videoTestVideo_video7476-shot1_6/img225.jpg,Images/MSR-VTT-videoTestVideo_video7476-shot1_6/img228.jpg,Images/MSR-VTT-videoTestVideo_video7476-shot1_6/img233.jpg,Images/MSR-VTT-videoTestVideo_video7476-shot1_6/img236.jpg,Images/MSR-VTT-videoTestVideo_video7476-shot1_6/img238.jpg,1370,29,0,2022-06-13_07h06.01.594,annotation,2021.2.3,Win32,20.07024586,,
,,,,,,,,,,,,,,,,,0.05078125,0.104166667,1,0,0,image_2,0,12,12,60,1,2,Green type writer with a red tape. ,H,,9,open-images-531_0dd4eb59d465a8be,Checks/check3/open-images-503_1ccd6fa641154ebbimg7.jpg,Checks/check3/open-images-1852_00faf52058ad28b8img4.jpg,Checks/check3/open-images-386_1b2e28d6d994603eimg1.jpg,Checks/check3/open-images-471_1121e9f97c200ac0img8.jpg,Checks/check3/open-images-1886_3db71eaddb618934img8.jpg,Checks/check3/open-images-1696_20a4ebf0c0f76b05img6.jpg,Checks/check3/open-images-2447_128483a48e1552f4img6.jpg,Checks/check3/open-images-2994_9965cbf8aa20bda0img2.jpg,Checks/check3/open-images-1068_03d63613107970b3img6.jpg,Checks/check3/open-images-531_0dd4eb59d465a8beimg9.jpg,,,1,2022-06-13_07h06.01.594,annotation,2021.2.3,Win32,20.07024586,,
,,,,,,,,,,,,,,,,,0.05078125,0.104166667,1,0,0,image_2,0,13,13,19,1,180,"The woman is pouring the liquid into the pan, and is looking downward at the pan/pouring.",H,0,2,YouCook-video0098-shot1_0,Images/YouCook-video0098-shot1_0/img0.jpg,Images/YouCook-video0098-shot1_0/img24.jpg,Images/YouCook-video0098-shot1_0/img106.jpg,Images/YouCook-video0098-shot1_0/img132.jpg,Images/YouCook-video0098-shot1_0/img137.jpg,Images/YouCook-video0098-shot1_0/img139.jpg,Images/YouCook-video0098-shot1_0/img149.jpg,Images/YouCook-video0098-shot1_0/img170.jpg,Images/YouCook-video0098-shot1_0/img191.jpg,Images/YouCook-video0098-shot1_0/img201.jpg,1767,29,0,2022-06-13_07h06.01.594,annotation,2021.2.3,Win32,20.07024586,,
,,,,,,,,,,,,,,,,,0.05078125,0.104166667,1,0,0,image_2,0,14,14,5,1,1846,A man is standing next to a motorcycle.,M,0,2,MSR-VTT-videoTestVideo_video9508-shot2_0,Images/MSR-VTT-videoTestVideo_video9508-shot2_0/img0.jpg,Images/MSR-VTT-videoTestVideo_video9508-shot2_0/img1.jpg,Images/MSR-VTT-videoTestVideo_video9508-shot2_0/img6.jpg,Images/MSR-VTT-videoTestVideo_video9508-shot2_0/img10.jpg,Images/MSR-VTT-videoTestVideo_video9508-shot2_0/img16.jpg,Images/MSR-VTT-videoTestVideo_video9508-shot2_0/img18.jpg,Images/MSR-VTT-videoTestVideo_video9508-shot2_0/img21.jpg,Images/MSR-VTT-videoTestVideo_video9508-shot2_0/img23.jpg,Images/MSR-VTT-videoTestVideo_video9508-shot2_0/img24.jpg,Images/MSR-VTT-videoTestVideo_video9508-shot2_0/img29.jpg,394,29,0,2022-06-13_07h06.01.594,annotation,2021.2.3,Win32,20.07024586,,
,,,,,,,,,,,,,,,,,0.05078125,0.104166667,1,0,0,image_2,0,15,15,52,1,244,The woman's right hand can be seen clearly on the baby's head,H,0,3,video-storytelling-videochristmas_5RR_sRzKODA-shot44_2,Images/video-storytelling-videochristmas_5RR_sRzKODA-shot44_2/img99.jpg,Images/video-storytelling-videochristmas_5RR_sRzKODA-shot44_2/img104.jpg,Images/video-storytelling-videochristmas_5RR_sRzKODA-shot44_2/img108.jpg,Images/video-storytelling-videochristmas_5RR_sRzKODA-shot44_2/img118.jpg,Images/video-storytelling-videochristmas_5RR_sRzKODA-shot44_2/img122.jpg,Images/video-storytelling-videochristmas_5RR_sRzKODA-shot44_2/img126.jpg,Images/video-storytelling-videochristmas_5RR_sRzKODA-shot44_2/img129.jpg,Images/video-storytelling-videochristmas_5RR_sRzKODA-shot44_2/img133.jpg,Images/video-storytelling-videochristmas_5RR_sRzKODA-shot44_2/img136.jpg,Images/video-storytelling-videochristmas_5RR_sRzKODA-shot44_2/img139.jpg,642,29,0,2022-06-13_07h06.01.594,annotation,2021.2.3,Win32,20.07024586,,
,,,,,,,,,,,,,,,,,0.05078125,0.104166667,1,0,0,image_2,0,16,16,56,1,896,"The green ""laser"" on either side of the text is the farthest away from each other.",H,0,6,MSR-VTT-videoTestVideo_video8964-shot1_0,Images/MSR-VTT-videoTestVideo_video8964-shot1_0/img0.jpg,Images/MSR-VTT-videoTestVideo_video8964-shot1_0/img1.jpg,Images/MSR-VTT-videoTestVideo_video8964-shot1_0/img14.jpg,Images/MSR-VTT-videoTestVideo_video8964-shot1_0/img20.jpg,Images/MSR-VTT-videoTestVideo_video8964-shot1_0/img21.jpg,Images/MSR-VTT-videoTestVideo_video8964-shot1_0/img24.jpg,Images/MSR-VTT-videoTestVideo_video8964-shot1_0/img26.jpg,Images/MSR-VTT-videoTestVideo_video8964-shot1_0/img30.jpg,Images/MSR-VTT-videoTestVideo_video8964-shot1_0/img67.jpg,Images/MSR-VTT-videoTestVideo_video8964-shot1_0/img76.jpg,285,29,0,2022-06-13_07h06.01.594,annotation,2021.2.3,Win32,20.07024586,,
,,,,,,,,,,,,,,,,,0.05078125,0.104166667,1,0,0,image_2,0,17,17,41,1,175,The lettering is on the back of a woman's head. There is little to no overlay/blurring.,H,0,9,MSR-VTT-videoTestVideo_video8831-shot14_0,Images/MSR-VTT-videoTestVideo_video8831-shot14_0/img0.jpg,Images/MSR-VTT-videoTestVideo_video8831-shot14_0/img5.jpg,Images/MSR-VTT-videoTestVideo_video8831-shot14_0/img11.jpg,Images/MSR-VTT-videoTestVideo_video8831-shot14_0/img17.jpg,Images/MSR-VTT-videoTestVideo_video8831-shot14_0/img24.jpg,Images/MSR-VTT-videoTestVideo_video8831-shot14_0/img25.jpg,Images/MSR-VTT-videoTestVideo_video8831-shot14_0/img26.jpg,Images/MSR-VTT-videoTestVideo_video8831-shot14_0/img28.jpg,Images/MSR-VTT-videoTestVideo_video8831-shot14_0/img29.jpg,Images/MSR-VTT-videoTestVideo_video8831-shot14_0/img30.jpg,306,29,0,2022-06-13_07h06.01.594,annotation,2021.2.3,Win32,20.07024586,,
,,,,,,,,,,,,,,,,,0.05078125,0.104166667,1,0,0,image_2,0,18,18,31,1,884,"The girl and red hat person are a bit away from each other, around half an arm length away.",H,0,0,MSR-VTT-videoTestVideo_video7041-shot0_3,Images/MSR-VTT-videoTestVideo_video7041-shot0_3/img59.jpg,Images/MSR-VTT-videoTestVideo_video7041-shot0_3/img60.jpg,Images/MSR-VTT-videoTestVideo_video7041-shot0_3/img63.jpg,Images/MSR-VTT-videoTestVideo_video7041-shot0_3/img66.jpg,Images/MSR-VTT-videoTestVideo_video7041-shot0_3/img68.jpg,Images/MSR-VTT-videoTestVideo_video7041-shot0_3/img72.jpg,Images/MSR-VTT-videoTestVideo_video7041-shot0_3/img75.jpg,Images/MSR-VTT-videoTestVideo_video7041-shot0_3/img78.jpg,Images/MSR-VTT-videoTestVideo_video7041-shot0_3/img83.jpg,Images/MSR-VTT-videoTestVideo_video7041-shot0_3/img84.jpg,1614,29,0,2022-06-13_07h06.01.594,annotation,2021.2.3,Win32,20.07024586,,
,,,,,,,,,,,,,,,,,0.05078125,0.104166667,1,0,0,image_2,0,19,19,48,1,944,the first two letters of the third word have the left hand in the background of them,H,0,0,MSR-VTT-videoTestVideo_video8282-shot1_1,Images/MSR-VTT-videoTestVideo_video8282-shot1_1/img21.jpg,Images/MSR-VTT-videoTestVideo_video8282-shot1_1/img22.jpg,Images/MSR-VTT-videoTestVideo_video8282-shot1_1/img25.jpg,Images/MSR-VTT-videoTestVideo_video8282-shot1_1/img27.jpg,Images/MSR-VTT-videoTestVideo_video8282-shot1_1/img30.jpg,Images/MSR-VTT-videoTestVideo_video8282-shot1_1/img31.jpg,Images/MSR-VTT-videoTestVideo_video8282-shot1_1/img33.jpg,Images/MSR-VTT-videoTestVideo_video8282-shot1_1/img36.jpg,Images/MSR-VTT-videoTestVideo_video8282-shot1_1/img37.jpg,Images/MSR-VTT-videoTestVideo_video8282-shot1_1/img39.jpg,328,29,0,2022-06-13_07h06.01.594,annotation,2021.2.3,Win32,20.07024586,,
,,,,,,,,,,,,,,,,,0.05078125,0.104166667,1,0,0,image_2,0,20,20,24,1,150,The man is looking up at the camera with his eyes somewhat squinted.  His mouth is totally closed and only one hand is seen at the bottom. ,H,0,0,MSR-VTT-videoTestVideo_video7988-shot1_2,Images/MSR-VTT-videoTestVideo_video7988-shot1_2/img208.jpg,Images/MSR-VTT-videoTestVideo_video7988-shot1_2/img217.jpg,Images/MSR-VTT-videoTestVideo_video7988-shot1_2/img232.jpg,Images/MSR-VTT-videoTestVideo_video7988-shot1_2/img250.jpg,Images/MSR-VTT-videoTestVideo_video7988-shot1_2/img255.jpg,Images/MSR-VTT-videoTestVideo_video7988-shot1_2/img263.jpg,Images/MSR-VTT-videoTestVideo_video7988-shot1_2/img270.jpg,Images/MSR-VTT-videoTestVideo_video7988-shot1_2/img290.jpg,Images/MSR-VTT-videoTestVideo_video7988-shot1_2/img307.jpg,Images/MSR-VTT-videoTestVideo_video7988-shot1_2/img311.jpg,1708,29,0,2022-06-13_07h06.01.594,annotation,2021.2.3,Win32,20.07024586,,
,,,,,,,,,,,,,,,,,0.05078125,0.104166667,1,0,0,image_2,0,21,21,49,1,141,The woman with white hair is looking over to the right slightly. Her elbow is almost touching the bottom right corner.,H,0,5,MSR-VTT-videoTestVideo_video8115-shot1_0,Images/MSR-VTT-videoTestVideo_video8115-shot1_0/img0.jpg,Images/MSR-VTT-videoTestVideo_video8115-shot1_0/img13.jpg,Images/MSR-VTT-videoTestVideo_video8115-shot1_0/img79.jpg,Images/MSR-VTT-videoTestVideo_video8115-shot1_0/img129.jpg,Images/MSR-VTT-videoTestVideo_video8115-shot1_0/img145.jpg,Images/MSR-VTT-videoTestVideo_video8115-shot1_0/img178.jpg,Images/MSR-VTT-videoTestVideo_video8115-shot1_0/img191.jpg,Images/MSR-VTT-videoTestVideo_video8115-shot1_0/img207.jpg,Images/MSR-VTT-videoTestVideo_video8115-shot1_0/img228.jpg,Images/MSR-VTT-videoTestVideo_video8115-shot1_0/img243.jpg,1414,29,0,2022-06-13_07h06.01.594,annotation,2021.2.3,Win32,20.07024586,,
,,,,,,,,,,,,,,,,,0.05078125,0.104166667,1,0,0,image_2,0,22,22,38,1,1488,A man riding a motor vehicle in the back of a car.,M,0,6,MSR-VTT-videoTestVideo_video8971-shot1_0,Images/MSR-VTT-videoTestVideo_video8971-shot1_0/img0.jpg,Images/MSR-VTT-videoTestVideo_video8971-shot1_0/img3.jpg,Images/MSR-VTT-videoTestVideo_video8971-shot1_0/img8.jpg,Images/MSR-VTT-videoTestVideo_video8971-shot1_0/img26.jpg,Images/MSR-VTT-videoTestVideo_video8971-shot1_0/img32.jpg,Images/MSR-VTT-videoTestVideo_video8971-shot1_0/img45.jpg,Images/MSR-VTT-videoTestVideo_video8971-shot1_0/img60.jpg,Images/MSR-VTT-videoTestVideo_video8971-shot1_0/img79.jpg,Images/MSR-VTT-videoTestVideo_video8971-shot1_0/img106.jpg,Images/MSR-VTT-videoTestVideo_video8971-shot1_0/img125.jpg,1870,29,0,2022-06-13_07h06.01.594,annotation,2021.2.3,Win32,20.07024586,,
,,,,,,,,,,,,,,,,,0.05078125,0.104166667,1,0,0,image_2,0,23,23,42,1,1030,The black wrestler's left knee is just about to leave the mat.  The ref's right leg is almost completely blocking the entire bottom of the grey wrestler's body. ,H,0,8,MSR-VTT-videoTestVideo_video8603-shot1_1,Images/MSR-VTT-videoTestVideo_video8603-shot1_1/img141.jpg,Images/MSR-VTT-videoTestVideo_video8603-shot1_1/img149.jpg,Images/MSR-VTT-videoTestVideo_video8603-shot1_1/img153.jpg,Images/MSR-VTT-videoTestVideo_video8603-shot1_1/img155.jpg,Images/MSR-VTT-videoTestVideo_video8603-shot1_1/img161.jpg,Images/MSR-VTT-videoTestVideo_video8603-shot1_1/img166.jpg,Images/MSR-VTT-videoTestVideo_video8603-shot1_1/img171.jpg,Images/MSR-VTT-videoTestVideo_video8603-shot1_1/img173.jpg,Images/MSR-VTT-videoTestVideo_video8603-shot1_1/img175.jpg,Images/MSR-VTT-videoTestVideo_video8603-shot1_1/img178.jpg,2013,29,0,2022-06-13_07h06.01.594,annotation,2021.2.3,Win32,20.07024586,,
,,,,,,,,,,,,,,,,,0.05078125,0.104166667,1,0,0,image_2,0,24,24,46,1,633,A hand is over her right eye and has her mouth like she is about to whistle,H,0,6,MSR-VTT-videoTestVideo_video7533-shot1_4,Images/MSR-VTT-videoTestVideo_video7533-shot1_4/img398.jpg,Images/MSR-VTT-videoTestVideo_video7533-shot1_4/img402.jpg,Images/MSR-VTT-videoTestVideo_video7533-shot1_4/img406.jpg,Images/MSR-VTT-videoTestVideo_video7533-shot1_4/img413.jpg,Images/MSR-VTT-videoTestVideo_video7533-shot1_4/img417.jpg,Images/MSR-VTT-videoTestVideo_video7533-shot1_4/img423.jpg,Images/MSR-VTT-videoTestVideo_video7533-shot1_4/img425.jpg,Images/MSR-VTT-videoTestVideo_video7533-shot1_4/img429.jpg,Images/MSR-VTT-videoTestVideo_video7533-shot1_4/img449.jpg,Images/MSR-VTT-videoTestVideo_video7533-shot1_4/img456.jpg,586,29,0,2022-06-13_07h06.01.594,annotation,2021.2.3,Win32,20.07024586,,
,,,,,,,,,,,,,,,,,0.05078125,0.104166667,1,0,0,image_2,0,25,25,51,1,1474,A group of people walking down a street.,M,0,7,MSR-VTT-videoTestVideo_video8022-shot1_3,Images/MSR-VTT-videoTestVideo_video8022-shot1_3/img382.jpg,Images/MSR-VTT-videoTestVideo_video8022-shot1_3/img393.jpg,Images/MSR-VTT-videoTestVideo_video8022-shot1_3/img416.jpg,Images/MSR-VTT-videoTestVideo_video8022-shot1_3/img477.jpg,Images/MSR-VTT-videoTestVideo_video8022-shot1_3/img484.jpg,Images/MSR-VTT-videoTestVideo_video8022-shot1_3/img485.jpg,Images/MSR-VTT-videoTestVideo_video8022-shot1_3/img488.jpg,Images/MSR-VTT-videoTestVideo_video8022-shot1_3/img490.jpg,Images/MSR-VTT-videoTestVideo_video8022-shot1_3/img492.jpg,Images/MSR-VTT-videoTestVideo_video8022-shot1_3/img496.jpg,1397,29,0,2022-06-13_07h06.01.594,annotation,2021.2.3,Win32,20.07024586,,
,,,,,,,,,,,,,,,,,0.05078125,0.104166667,1,0,0,image_2,0,26,26,21,1,1724,A young boy standing in a room with a suitcase.,M,0,8,MSR-VTT-videoTestVideo_video9095-shot1_1,Images/MSR-VTT-videoTestVideo_video9095-shot1_1/img131.jpg,Images/MSR-VTT-videoTestVideo_video9095-shot1_1/img136.jpg,Images/MSR-VTT-videoTestVideo_video9095-shot1_1/img139.jpg,Images/MSR-VTT-videoTestVideo_video9095-shot1_1/img149.jpg,Images/MSR-VTT-videoTestVideo_video9095-shot1_1/img164.jpg,Images/MSR-VTT-videoTestVideo_video9095-shot1_1/img179.jpg,Images/MSR-VTT-videoTestVideo_video9095-shot1_1/img188.jpg,Images/MSR-VTT-videoTestVideo_video9095-shot1_1/img194.jpg,Images/MSR-VTT-videoTestVideo_video9095-shot1_1/img205.jpg,Images/MSR-VTT-videoTestVideo_video9095-shot1_1/img207.jpg,1230,29,0,2022-06-13_07h06.01.594,annotation,2021.2.3,Win32,20.07024586,,
,,,,,,,,,,,,,,,,,0.05078125,0.104166667,1,0,0,image_2,0,27,27,14,1,2000,A man and woman standing in front of a church.,M,0,2,video-storytelling-videowedding_46xhFCXBMJs-shot62_0,Images/video-storytelling-videowedding_46xhFCXBMJs-shot62_0/img0.jpg,Images/video-storytelling-videowedding_46xhFCXBMJs-shot62_0/img26.jpg,Images/video-storytelling-videowedding_46xhFCXBMJs-shot62_0/img41.jpg,Images/video-storytelling-videowedding_46xhFCXBMJs-shot62_0/img50.jpg,Images/video-storytelling-videowedding_46xhFCXBMJs-shot62_0/img71.jpg,Images/video-storytelling-videowedding_46xhFCXBMJs-shot62_0/img76.jpg,Images/video-storytelling-videowedding_46xhFCXBMJs-shot62_0/img78.jpg,Images/video-storytelling-videowedding_46xhFCXBMJs-shot62_0/img79.jpg,Images/video-storytelling-videowedding_46xhFCXBMJs-shot62_0/img81.jpg,Images/video-storytelling-videowedding_46xhFCXBMJs-shot62_0/img85.jpg,453,29,0,2022-06-13_07h06.01.594,annotation,2021.2.3,Win32,20.07024586,,
,,,,,,,,,,,,,,,,,0.05078125,0.104166667,1,0,0,image_2,0,28,28,8,1,1033,The girl's head is a little more than halfway in the frame. Her left hand is also only halfway in frame.,H,0,1,MSR-VTT-videoTestVideo_video7070-shot1_0,Images/MSR-VTT-videoTestVideo_video7070-shot1_0/img0.jpg,Images/MSR-VTT-videoTestVideo_video7070-shot1_0/img3.jpg,Images/MSR-VTT-videoTestVideo_video7070-shot1_0/img6.jpg,Images/MSR-VTT-videoTestVideo_video7070-shot1_0/img7.jpg,Images/MSR-VTT-videoTestVideo_video7070-shot1_0/img12.jpg,Images/MSR-VTT-videoTestVideo_video7070-shot1_0/img14.jpg,Images/MSR-VTT-videoTestVideo_video7070-shot1_0/img18.jpg,Images/MSR-VTT-videoTestVideo_video7070-shot1_0/img23.jpg,Images/MSR-VTT-videoTestVideo_video7070-shot1_0/img30.jpg,Images/MSR-VTT-videoTestVideo_video7070-shot1_0/img32.jpg,693,29,0,2022-06-13_07h06.01.594,annotation,2021.2.3,Win32,20.07024586,,
,,,,,,,,,,,,,,,,,0.05078125,0.104166667,1,0,0,image_2,0,29,29,55,1,1562,A man drinking a glass of water while holding a drink.,M,0,4,video-storytelling-videocamping_EytINruY3-U-shot47_0,Images/video-storytelling-videocamping_EytINruY3-U-shot47_0/img0.jpg,Images/video-storytelling-videocamping_EytINruY3-U-shot47_0/img8.jpg,Images/video-storytelling-videocamping_EytINruY3-U-shot47_0/img14.jpg,Images/video-storytelling-videocamping_EytINruY3-U-shot47_0/img29.jpg,Images/video-storytelling-videocamping_EytINruY3-U-shot47_0/img33.jpg,Images/video-storytelling-videocamping_EytINruY3-U-shot47_0/img37.jpg,Images/video-storytelling-videocamping_EytINruY3-U-shot47_0/img39.jpg,Images/video-storytelling-videocamping_EytINruY3-U-shot47_0/img42.jpg,Images/video-storytelling-videocamping_EytINruY3-U-shot47_0/img47.jpg,Images/video-storytelling-videocamping_EytINruY3-U-shot47_0/img51.jpg,804,29,0,2022-06-13_07h06.01.594,annotation,2021.2.3,Win32,20.07024586,,
,,,,,,,,,,,,,,,,,0.05078125,0.104166667,1,0,0,image_2,0,30,30,53,1,1682,A group of people sitting on top of a train.,M,0,7,MSR-VTT-videoTestVideo_video8689-shot1_2,Images/MSR-VTT-videoTestVideo_video8689-shot1_2/img218.jpg,Images/MSR-VTT-videoTestVideo_video8689-shot1_2/img226.jpg,Images/MSR-VTT-videoTestVideo_video8689-shot1_2/img312.jpg,Images/MSR-VTT-videoTestVideo_video8689-shot1_2/img384.jpg,Images/MSR-VTT-videoTestVideo_video8689-shot1_2/img445.jpg,Images/MSR-VTT-videoTestVideo_video8689-shot1_2/img483.jpg,Images/MSR-VTT-videoTestVideo_video8689-shot1_2/img501.jpg,Images/MSR-VTT-videoTestVideo_video8689-shot1_2/img547.jpg,Images/MSR-VTT-videoTestVideo_video8689-shot1_2/img572.jpg,Images/MSR-VTT-videoTestVideo_video8689-shot1_2/img591.jpg,2071,29,0,2022-06-13_07h06.01.594,annotation,2021.2.3,Win32,20.07024586,,
,,,,,,,,,,,,,,,,,0.180989583,0.108072917,1,0,0,image_3,0,31,31,2,1,1965,A woman standing next to a man in a wedding ring.,M,0,1,video-storytelling-videowedding_Bp8t824h5NE-shot59_1,Images/video-storytelling-videowedding_Bp8t824h5NE-shot59_1/img2110.jpg,Images/video-storytelling-videowedding_Bp8t824h5NE-shot59_1/img2195.jpg,Images/video-storytelling-videowedding_Bp8t824h5NE-shot59_1/img2202.jpg,Images/video-storytelling-videowedding_Bp8t824h5NE-shot59_1/img2207.jpg,Images/video-storytelling-videowedding_Bp8t824h5NE-shot59_1/img2214.jpg,Images/video-storytelling-videowedding_Bp8t824h5NE-shot59_1/img2222.jpg,Images/video-storytelling-videowedding_Bp8t824h5NE-shot59_1/img2258.jpg,Images/video-storytelling-videowedding_Bp8t824h5NE-shot59_1/img2270.jpg,Images/video-storytelling-videowedding_Bp8t824h5NE-shot59_1/img2285.jpg,Images/video-storytelling-videowedding_Bp8t824h5NE-shot59_1/img2365.jpg,1265,29,0,2022-06-13_07h06.01.594,annotation,2021.2.3,Win32,20.07024586,,
,,,,,,,,,,,,,,,,,0.180989583,0.106770833,1,0,0,image_3,0,32,32,28,1,406,The woman on the right is holding a fork near the other person's mouth.  The person on the left has their mouth still closed. ,H,0,5,MSR-VTT-videoTestVideo_video8345-shot1_1,Images/MSR-VTT-videoTestVideo_video8345-shot1_1/img50.jpg,Images/MSR-VTT-videoTestVideo_video8345-shot1_1/img52.jpg,Images/MSR-VTT-videoTestVideo_video8345-shot1_1/img63.jpg,Images/MSR-VTT-videoTestVideo_video8345-shot1_1/img72.jpg,Images/MSR-VTT-videoTestVideo_video8345-shot1_1/img79.jpg,Images/MSR-VTT-videoTestVideo_video8345-shot1_1/img87.jpg,Images/MSR-VTT-videoTestVideo_video8345-shot1_1/img99.jpg,Images/MSR-VTT-videoTestVideo_video8345-shot1_1/img132.jpg,Images/MSR-VTT-videoTestVideo_video8345-shot1_1/img141.jpg,Images/MSR-VTT-videoTestVideo_video8345-shot1_1/img147.jpg,1969,29,0,2022-06-13_07h06.01.594,annotation,2021.2.3,Win32,20.07024586,,
,,,,,,,,,,,,,,,,,0.180989583,0.106770833,1,0,0,image_3,0,33,33,13,1,1926,A person is holding a red purse and scissors.,M,0,3,MSR-VTT-videoTestVideo_video8153-shot1_0,Images/MSR-VTT-videoTestVideo_video8153-shot1_0/img5.jpg,Images/MSR-VTT-videoTestVideo_video8153-shot1_0/img18.jpg,Images/MSR-VTT-videoTestVideo_video8153-shot1_0/img22.jpg,Images/MSR-VTT-videoTestVideo_video8153-shot1_0/img23.jpg,Images/MSR-VTT-videoTestVideo_video8153-shot1_0/img26.jpg,Images/MSR-VTT-videoTestVideo_video8153-shot1_0/img47.jpg,Images/MSR-VTT-videoTestVideo_video8153-shot1_0/img73.jpg,Images/MSR-VTT-videoTestVideo_video8153-shot1_0/img91.jpg,Images/MSR-VTT-videoTestVideo_video8153-shot1_0/img129.jpg,Images/MSR-VTT-videoTestVideo_video8153-shot1_0/img216.jpg,210,29,0,2022-06-13_07h06.01.594,annotation,2021.2.3,Win32,20.07024586,,
,,,,,,,,,,,,,,,,,0.180989583,0.106770833,1,0,0,image_3,0,34,34,59,1,1,The only picture of a hawk.  It is looking to the left.  You see lots of branches and darker blue sky. ,H,,5,open-images-958_686caac9c5b322e7,Checks/check2/open-images-2603_1b5152f01f0093e7img3.jpg,Checks/check2/open-images-1836_069810916ce5d675img8.jpg,Checks/check2/open-images-974_0748fdedc4bf8b7bimg2.jpg,Checks/check2/open-images-617_01fb725fb1aa7b04img6.jpg,Checks/check2/open-images-507_047769e1f977cd97img2.jpg,Checks/check2/open-images-958_686caac9c5b322e7img5.jpg,Checks/check2/open-images-1278_21851d9bf5dc05c9img7.jpg,Checks/check2/open-images-2424_05f04546e01499f2img0.jpg,Checks/check2/open-images-1529_1442b11a10a6aeadimg3.jpg,Checks/check2/open-images-514_2c523ddedc2561d4img1.jpg,,,1,2022-06-13_07h06.01.594,annotation,2021.2.3,Win32,20.07024586,,
,,,,,,,,,,,,,,,,,0.180989583,0.106770833,1,0,0,image_3,0,35,35,1,1,1802,A photo of a person standing next to a television.,M,0,9,MSR-VTT-videoTestVideo_video9219-shot1_3,Images/MSR-VTT-videoTestVideo_video9219-shot1_3/img256.jpg,Images/MSR-VTT-videoTestVideo_video9219-shot1_3/img260.jpg,Images/MSR-VTT-videoTestVideo_video9219-shot1_3/img262.jpg,Images/MSR-VTT-videoTestVideo_video9219-shot1_3/img268.jpg,Images/MSR-VTT-videoTestVideo_video9219-shot1_3/img272.jpg,Images/MSR-VTT-videoTestVideo_video9219-shot1_3/img286.jpg,Images/MSR-VTT-videoTestVideo_video9219-shot1_3/img291.jpg,Images/MSR-VTT-videoTestVideo_video9219-shot1_3/img302.jpg,Images/MSR-VTT-videoTestVideo_video9219-shot1_3/img315.jpg,Images/MSR-VTT-videoTestVideo_video9219-shot1_3/img328.jpg,1832,29,0,2022-06-13_07h06.01.594,annotation,2021.2.3,Win32,20.07024586,,
,,,,,,,,,,,,,,,,,0.180989583,0.106770833,1,0,0,image_3,0,36,36,26,1,970,The little girl on the left is looking to the top left with her mouth slightly open while the boy in orange is looking straight at the blue and red cup.,H,0,6,video-storytelling-videobirthday__amwPjAcoC8-shot21_0,Images/video-storytelling-videobirthday__amwPjAcoC8-shot21_0/img0.jpg,Images/video-storytelling-videobirthday__amwPjAcoC8-shot21_0/img6.jpg,Images/video-storytelling-videobirthday__amwPjAcoC8-shot21_0/img9.jpg,Images/video-storytelling-videobirthday__amwPjAcoC8-shot21_0/img16.jpg,Images/video-storytelling-videobirthday__amwPjAcoC8-shot21_0/img24.jpg,Images/video-storytelling-videobirthday__amwPjAcoC8-shot21_0/img41.jpg,Images/video-storytelling-videobirthday__amwPjAcoC8-shot21_0/img45.jpg,Images/video-storytelling-videobirthday__amwPjAcoC8-shot21_0/img54.jpg,Images/video-storytelling-videobirthday__amwPjAcoC8-shot21_0/img59.jpg,Images/video-storytelling-videobirthday__amwPjAcoC8-shot21_0/img66.jpg,423,29,0,2022-06-13_07h06.01.594,annotation,2021.2.3,Win32,20.07024586,,
,,,,,,,,,,,,,,,,,0.180989583,0.106770833,1,0,0,image_3,0,37,37,58,1,0,Pair of black gloves,H,,2,open-images-510_3a241cb30d6e5319,Checks/check1/open-images-225_1442c0d0ef23d58bimg3.jpg,Checks/check1/open-images-2759_3a42708fe77398b7img8.jpg,Checks/check1/open-images-510_3a241cb30d6e5319img2.jpg,Checks/check1/open-images-2209_02c98146fb93ff17img1.jpg,Checks/check1/open-images-1553_0f128317e56a9d2fimg9.jpg,Checks/check1/open-images-2666_044d7c6d11e6b493img8.jpg,Checks/check1/open-images-2880_159294646083f545img4.jpg,Checks/check1/open-images-609_2dc0baa993a2bd25img5.jpg,Checks/check1/open-images-1854_2b15616b4f1080e7img2.jpg,Checks/check1/open-images-1435_1b0ce31951048765img8.jpg,,,1,2022-06-13_07h06.01.594,annotation,2021.2.3,Win32,20.07024586,,
,,,,,,,,,,,,,,,,,0.180989583,0.106770833,1,0,0,image_3,0,38,38,16,1,551,The bride and father are still outside of the church.  You can't see the father's face at all but can see some of his body. ,H,0,1,video-storytelling-videowedding_46xhFCXBMJs-shot62_0,Images/video-storytelling-videowedding_46xhFCXBMJs-shot62_0/img0.jpg,Images/video-storytelling-videowedding_46xhFCXBMJs-shot62_0/img26.jpg,Images/video-storytelling-videowedding_46xhFCXBMJs-shot62_0/img41.jpg,Images/video-storytelling-videowedding_46xhFCXBMJs-shot62_0/img50.jpg,Images/video-storytelling-videowedding_46xhFCXBMJs-shot62_0/img71.jpg,Images/video-storytelling-videowedding_46xhFCXBMJs-shot62_0/img76.jpg,Images/video-storytelling-videowedding_46xhFCXBMJs-shot62_0/img78.jpg,Images/video-storytelling-videowedding_46xhFCXBMJs-shot62_0/img79.jpg,Images/video-storytelling-videowedding_46xhFCXBMJs-shot62_0/img81.jpg,Images/video-storytelling-videowedding_46xhFCXBMJs-shot62_0/img85.jpg,1234,29,0,2022-06-13_07h06.01.594,annotation,2021.2.3,Win32,20.07024586,,
,,,,,,,,,,,,,,,,,0.180989583,0.106770833,1,0,0,image_3,0,39,39,10,1,700,It's difficult to see the two players sitting on the bench due to the fading away.,H,0,6,MSR-VTT-videoTestVideo_video9469-shot0_3,Images/MSR-VTT-videoTestVideo_video9469-shot0_3/img101.jpg,Images/MSR-VTT-videoTestVideo_video9469-shot0_3/img104.jpg,Images/MSR-VTT-videoTestVideo_video9469-shot0_3/img106.jpg,Images/MSR-VTT-videoTestVideo_video9469-shot0_3/img109.jpg,Images/MSR-VTT-videoTestVideo_video9469-shot0_3/img111.jpg,Images/MSR-VTT-videoTestVideo_video9469-shot0_3/img115.jpg,Images/MSR-VTT-videoTestVideo_video9469-shot0_3/img120.jpg,Images/MSR-VTT-videoTestVideo_video9469-shot0_3/img121.jpg,Images/MSR-VTT-videoTestVideo_video9469-shot0_3/img122.jpg,Images/MSR-VTT-videoTestVideo_video9469-shot0_3/img125.jpg,1683,29,0,2022-06-13_07h06.01.594,annotation,2021.2.3,Win32,20.07024586,,
,,,,,,,,,,,,,,,,,0.180989583,0.106770833,1,0,0,image_3,0,40,40,15,1,1479,A close up view of a person's feet on a wooden floor.,M,0,9,MSR-VTT-videoTestVideo_video8867-shot1_2,Images/MSR-VTT-videoTestVideo_video8867-shot1_2/img67.jpg,Images/MSR-VTT-videoTestVideo_video8867-shot1_2/img70.jpg,Images/MSR-VTT-videoTestVideo_video8867-shot1_2/img72.jpg,Images/MSR-VTT-videoTestVideo_video8867-shot1_2/img76.jpg,Images/MSR-VTT-videoTestVideo_video8867-shot1_2/img77.jpg,Images/MSR-VTT-videoTestVideo_video8867-shot1_2/img78.jpg,Images/MSR-VTT-videoTestVideo_video8867-shot1_2/img79.jpg,Images/MSR-VTT-videoTestVideo_video8867-shot1_2/img82.jpg,Images/MSR-VTT-videoTestVideo_video8867-shot1_2/img83.jpg,Images/MSR-VTT-videoTestVideo_video8867-shot1_2/img90.jpg,1363,29,0,2022-06-13_07h06.01.594,annotation,2021.2.3,Win32,20.07024586,,
,,,,,,,,,,,,,,,,,0.180989583,0.106770833,1,0,0,image_3,0,41,41,54,1,1516,A group of cats sitting on top of a tennis court.,M,0,5,MSR-VTT-videoTestVideo_video7622-shot4_1,Images/MSR-VTT-videoTestVideo_video7622-shot4_1/img39.jpg,Images/MSR-VTT-videoTestVideo_video7622-shot4_1/img43.jpg,Images/MSR-VTT-videoTestVideo_video7622-shot4_1/img54.jpg,Images/MSR-VTT-videoTestVideo_video7622-shot4_1/img60.jpg,Images/MSR-VTT-videoTestVideo_video7622-shot4_1/img61.jpg,Images/MSR-VTT-videoTestVideo_video7622-shot4_1/img66.jpg,Images/MSR-VTT-videoTestVideo_video7622-shot4_1/img71.jpg,Images/MSR-VTT-videoTestVideo_video7622-shot4_1/img80.jpg,Images/MSR-VTT-videoTestVideo_video7622-shot4_1/img82.jpg,Images/MSR-VTT-videoTestVideo_video7622-shot4_1/img87.jpg,1550,29,0,2022-06-13_07h06.01.594,annotation,2021.2.3,Win32,20.07024586,,
,,,,,,,,,,,,,,,,,0.180989583,0.106770833,1,0,0,image_3,0,42,42,33,1,1966,A knife that is laying on top of a cutting board.,M,0,5,MSR-VTT-videoTestVideo_video9525-shot1_1,Images/MSR-VTT-videoTestVideo_video9525-shot1_1/img65.jpg,Images/MSR-VTT-videoTestVideo_video9525-shot1_1/img77.jpg,Images/MSR-VTT-videoTestVideo_video9525-shot1_1/img83.jpg,Images/MSR-VTT-videoTestVideo_video9525-shot1_1/img84.jpg,Images/MSR-VTT-videoTestVideo_video9525-shot1_1/img92.jpg,Images/MSR-VTT-videoTestVideo_video9525-shot1_1/img124.jpg,Images/MSR-VTT-videoTestVideo_video9525-shot1_1/img154.jpg,Images/MSR-VTT-videoTestVideo_video9525-shot1_1/img158.jpg,Images/MSR-VTT-videoTestVideo_video9525-shot1_1/img186.jpg,Images/MSR-VTT-videoTestVideo_video9525-shot1_1/img207.jpg,687,29,0,2022-06-13_07h06.01.594,annotation,2021.2.3,Win32,20.07024586,,
,,,,,,,,,,,,,,,,,0.180989583,0.106770833,1,0,0,image_3,0,43,43,35,1,147,The person is moving the object in the egg away from the camera. The fingers on the right hand appear to be just barely touching the object. ,H,1,7,MSR-VTT-videoTestVideo_video9759-shot1_0,Images/MSR-VTT-videoTestVideo_video9759-shot1_0/img0.jpg,Images/MSR-VTT-videoTestVideo_video9759-shot1_0/img8.jpg,Images/MSR-VTT-videoTestVideo_video9759-shot1_0/img16.jpg,Images/MSR-VTT-videoTestVideo_video9759-shot1_0/img32.jpg,Images/MSR-VTT-videoTestVideo_video9759-shot1_0/img37.jpg,Images/MSR-VTT-videoTestVideo_video9759-shot1_0/img46.jpg,Images/MSR-VTT-videoTestVideo_video9759-shot1_0/img56.jpg,Images/MSR-VTT-videoTestVideo_video9759-shot1_0/img65.jpg,Images/MSR-VTT-videoTestVideo_video9759-shot1_0/img69.jpg,Images/MSR-VTT-videoTestVideo_video9759-shot1_0/img72.jpg,64,29,0,2022-06-13_07h06.01.594,annotation,2021.2.3,Win32,20.07024586,,
,,,,,,,,,,,,,,,,,0.180989583,0.106770833,1,0,0,image_3,0,44,44,18,1,449,You can see the woman's elbow only who has the red plaid on the very upper right corner of the image.  ,H,0,4,video-storytelling-videocamping_1OzbiB1TIWI-shot17_3,Images/video-storytelling-videocamping_1OzbiB1TIWI-shot17_3/img147.jpg,Images/video-storytelling-videocamping_1OzbiB1TIWI-shot17_3/img148.jpg,Images/video-storytelling-videocamping_1OzbiB1TIWI-shot17_3/img149.jpg,Images/video-storytelling-videocamping_1OzbiB1TIWI-shot17_3/img152.jpg,Images/video-storytelling-videocamping_1OzbiB1TIWI-shot17_3/img153.jpg,Images/video-storytelling-videocamping_1OzbiB1TIWI-shot17_3/img156.jpg,Images/video-storytelling-videocamping_1OzbiB1TIWI-shot17_3/img157.jpg,Images/video-storytelling-videocamping_1OzbiB1TIWI-shot17_3/img159.jpg,Images/video-storytelling-videocamping_1OzbiB1TIWI-shot17_3/img161.jpg,Images/video-storytelling-videocamping_1OzbiB1TIWI-shot17_3/img166.jpg,169,29,0,2022-06-13_07h06.01.594,annotation,2021.2.3,Win32,20.07024586,,
,,,,,,,,,,,,,,,,,0.180989583,0.106770833,1,0,0,image_3,0,45,45,11,1,932,The woman has the biggest smile showing both the top and bottom of her teeth. ,H,0,1,MSR-VTT-videoTestVideo_video8053-shot1_0,Images/MSR-VTT-videoTestVideo_video8053-shot1_0/img0.jpg,Images/MSR-VTT-videoTestVideo_video8053-shot1_0/img19.jpg,Images/MSR-VTT-videoTestVideo_video8053-shot1_0/img58.jpg,Images/MSR-VTT-videoTestVideo_video8053-shot1_0/img106.jpg,Images/MSR-VTT-videoTestVideo_video8053-shot1_0/img113.jpg,Images/MSR-VTT-videoTestVideo_video8053-shot1_0/img119.jpg,Images/MSR-VTT-videoTestVideo_video8053-shot1_0/img124.jpg,Images/MSR-VTT-videoTestVideo_video8053-shot1_0/img127.jpg,Images/MSR-VTT-videoTestVideo_video8053-shot1_0/img138.jpg,Images/MSR-VTT-videoTestVideo_video8053-shot1_0/img155.jpg,152,29,0,2022-06-13_07h06.01.594,annotation,2021.2.3,Win32,20.07024586,,
,,,,,,,,,,,,,,,,,0.180989583,0.106770833,1,0,0,image_3,0,46,46,9,1,1185,A woman standing next to a black dog.,M,0,5,MSR-VTT-videoTestVideo_video8115-shot1_0,Images/MSR-VTT-videoTestVideo_video8115-shot1_0/img0.jpg,Images/MSR-VTT-videoTestVideo_video8115-shot1_0/img13.jpg,Images/MSR-VTT-videoTestVideo_video8115-shot1_0/img79.jpg,Images/MSR-VTT-videoTestVideo_video8115-shot1_0/img129.jpg,Images/MSR-VTT-videoTestVideo_video8115-shot1_0/img145.jpg,Images/MSR-VTT-videoTestVideo_video8115-shot1_0/img178.jpg,Images/MSR-VTT-videoTestVideo_video8115-shot1_0/img191.jpg,Images/MSR-VTT-videoTestVideo_video8115-shot1_0/img207.jpg,Images/MSR-VTT-videoTestVideo_video8115-shot1_0/img228.jpg,Images/MSR-VTT-videoTestVideo_video8115-shot1_0/img243.jpg,728,29,0,2022-06-13_07h06.01.594,annotation,2021.2.3,Win32,20.07024586,,
,,,,,,,,,,,,,,,,,0.180989583,0.106770833,1,0,0,image_3,0,47,47,0,1,786,A shadow from the person's thumb is going right down the center of the left bagel on the plate. ,H,0,4,video-storytelling-videocamping_dBXYM3dQTSo-shot69_4,Images/video-storytelling-videocamping_dBXYM3dQTSo-shot69_4/img214.jpg,Images/video-storytelling-videocamping_dBXYM3dQTSo-shot69_4/img221.jpg,Images/video-storytelling-videocamping_dBXYM3dQTSo-shot69_4/img223.jpg,Images/video-storytelling-videocamping_dBXYM3dQTSo-shot69_4/img226.jpg,Images/video-storytelling-videocamping_dBXYM3dQTSo-shot69_4/img235.jpg,Images/video-storytelling-videocamping_dBXYM3dQTSo-shot69_4/img237.jpg,Images/video-storytelling-videocamping_dBXYM3dQTSo-shot69_4/img243.jpg,Images/video-storytelling-videocamping_dBXYM3dQTSo-shot69_4/img246.jpg,Images/video-storytelling-videocamping_dBXYM3dQTSo-shot69_4/img249.jpg,Images/video-storytelling-videocamping_dBXYM3dQTSo-shot69_4/img255.jpg,1091,29,0,2022-06-13_07h06.01.594,annotation,2021.2.3,Win32,20.07024586,,
,,,,,,,,,,,,,,,,,0.180989583,0.106770833,1,0,0,image_3,0,48,48,50,1,1375,A group of people standing in front of a red bus.,M,0,2,MSR-VTT-videoTestVideo_video9668-shot1_1,Images/MSR-VTT-videoTestVideo_video9668-shot1_1/img45.jpg,Images/MSR-VTT-videoTestVideo_video9668-shot1_1/img47.jpg,Images/MSR-VTT-videoTestVideo_video9668-shot1_1/img53.jpg,Images/MSR-VTT-videoTestVideo_video9668-shot1_1/img55.jpg,Images/MSR-VTT-videoTestVideo_video9668-shot1_1/img60.jpg,Images/MSR-VTT-videoTestVideo_video9668-shot1_1/img65.jpg,Images/MSR-VTT-videoTestVideo_video9668-shot1_1/img67.jpg,Images/MSR-VTT-videoTestVideo_video9668-shot1_1/img75.jpg,Images/MSR-VTT-videoTestVideo_video9668-shot1_1/img84.jpg,Images/MSR-VTT-videoTestVideo_video9668-shot1_1/img93.jpg,1638,29,0,2022-06-13_07h06.01.594,annotation,2021.2.3,Win32,20.07024586,,
,,,,,,,,,,,,,,,,,0.180989583,0.106770833,1,0,0,image_3,0,49,49,45,1,368,A ball is going through the hoop and is almost touching the top of the ring.,H,0,5,MSR-VTT-videoTestVideo_video7168-shot1_1,Images/MSR-VTT-videoTestVideo_video7168-shot1_1/img148.jpg,Images/MSR-VTT-videoTestVideo_video7168-shot1_1/img161.jpg,Images/MSR-VTT-videoTestVideo_video7168-shot1_1/img169.jpg,Images/MSR-VTT-videoTestVideo_video7168-shot1_1/img174.jpg,Images/MSR-VTT-videoTestVideo_video7168-shot1_1/img180.jpg,Images/MSR-VTT-videoTestVideo_video7168-shot1_1/img185.jpg,Images/MSR-VTT-videoTestVideo_video7168-shot1_1/img188.jpg,Images/MSR-VTT-videoTestVideo_video7168-shot1_1/img192.jpg,Images/MSR-VTT-videoTestVideo_video7168-shot1_1/img193.jpg,Images/MSR-VTT-videoTestVideo_video7168-shot1_1/img195.jpg,2043,29,0,2022-06-13_07h06.01.594,annotation,2021.2.3,Win32,20.07024586,,
,,,,,,,,,,,,,,,,,0.180989583,0.106770833,1,0,0,image_3,0,50,50,17,1,523,A hand on the right is about to pet the bunny furthest to the right side,H,0,6,MSR-VTT-videoTestVideo_video8536-shot0_0,Images/MSR-VTT-videoTestVideo_video8536-shot0_0/img0.jpg,Images/MSR-VTT-videoTestVideo_video8536-shot0_0/img2.jpg,Images/MSR-VTT-videoTestVideo_video8536-shot0_0/img7.jpg,Images/MSR-VTT-videoTestVideo_video8536-shot0_0/img11.jpg,Images/MSR-VTT-videoTestVideo_video8536-shot0_0/img17.jpg,Images/MSR-VTT-videoTestVideo_video8536-shot0_0/img20.jpg,Images/MSR-VTT-videoTestVideo_video8536-shot0_0/img28.jpg,Images/MSR-VTT-videoTestVideo_video8536-shot0_0/img35.jpg,Images/MSR-VTT-videoTestVideo_video8536-shot0_0/img36.jpg,Images/MSR-VTT-videoTestVideo_video8536-shot0_0/img45.jpg,1695,29,0,2022-06-13_07h06.01.594,annotation,2021.2.3,Win32,20.07024586,,
,,,,,,,,,,,,,,,,,0.180989583,0.106770833,1,0,0,image_3,0,51,51,47,1,1776,A woman holding a cat in her hand.,M,0,2,MSR-VTT-videoTestVideo_video8965-shot1_0,Images/MSR-VTT-videoTestVideo_video8965-shot1_0/img0.jpg,Images/MSR-VTT-videoTestVideo_video8965-shot1_0/img5.jpg,Images/MSR-VTT-videoTestVideo_video8965-shot1_0/img31.jpg,Images/MSR-VTT-videoTestVideo_video8965-shot1_0/img80.jpg,Images/MSR-VTT-videoTestVideo_video8965-shot1_0/img242.jpg,Images/MSR-VTT-videoTestVideo_video8965-shot1_0/img250.jpg,Images/MSR-VTT-videoTestVideo_video8965-shot1_0/img287.jpg,Images/MSR-VTT-videoTestVideo_video8965-shot1_0/img318.jpg,Images/MSR-VTT-videoTestVideo_video8965-shot1_0/img402.jpg,Images/MSR-VTT-videoTestVideo_video8965-shot1_0/img473.jpg,1019,29,0,2022-06-13_07h06.01.594,annotation,2021.2.3,Win32,20.07024586,,
,,,,,,,,,,,,,,,,,0.180989583,0.106770833,1,0,0,image_3,0,52,52,29,1,1348,A little girl with a hat and a ponytail standing outside.,M,1,2,video-storytelling-videobirthday__amwPjAcoC8-shot81_0,Images/video-storytelling-videobirthday__amwPjAcoC8-shot81_0/img0.jpg,Images/video-storytelling-videobirthday__amwPjAcoC8-shot81_0/img13.jpg,Images/video-storytelling-videobirthday__amwPjAcoC8-shot81_0/img23.jpg,Images/video-storytelling-videobirthday__amwPjAcoC8-shot81_0/img33.jpg,Images/video-storytelling-videobirthday__amwPjAcoC8-shot81_0/img43.jpg,Images/video-storytelling-videobirthday__amwPjAcoC8-shot81_0/img49.jpg,Images/video-storytelling-videobirthday__amwPjAcoC8-shot81_0/img53.jpg,Images/video-storytelling-videobirthday__amwPjAcoC8-shot81_0/img58.jpg,Images/video-storytelling-videobirthday__amwPjAcoC8-shot81_0/img60.jpg,Images/video-storytelling-videobirthday__amwPjAcoC8-shot81_0/img67.jpg,565,29,0,2022-06-13_07h06.01.594,annotation,2021.2.3,Win32,20.07024586,,
,,,,,,,,,,,,,,,,,0.180989583,0.106770833,1,0,0,image_3,0,53,53,3,1,1480,A pair of sausages on top of a wooden table.,M,0,6,MSR-VTT-videoTestVideo_video9921-shot1_3,Images/MSR-VTT-videoTestVideo_video9921-shot1_3/img277.jpg,Images/MSR-VTT-videoTestVideo_video9921-shot1_3/img278.jpg,Images/MSR-VTT-videoTestVideo_video9921-shot1_3/img279.jpg,Images/MSR-VTT-videoTestVideo_video9921-shot1_3/img281.jpg,Images/MSR-VTT-videoTestVideo_video9921-shot1_3/img282.jpg,Images/MSR-VTT-videoTestVideo_video9921-shot1_3/img284.jpg,Images/MSR-VTT-videoTestVideo_video9921-shot1_3/img287.jpg,Images/MSR-VTT-videoTestVideo_video9921-shot1_3/img290.jpg,Images/MSR-VTT-videoTestVideo_video9921-shot1_3/img297.jpg,Images/MSR-VTT-videoTestVideo_video9921-shot1_3/img309.jpg,1239,29,0,2022-06-13_07h06.01.594,annotation,2021.2.3,Win32,20.07024586,,
,,,,,,,,,,,,,,,,,0.180989583,0.106770833,1,0,0,image_3,0,54,54,7,1,1270,Two men standing next to a table with hotdogs.,M,0,3,MSR-VTT-videoTestVideo_video7362-shot1_1,Images/MSR-VTT-videoTestVideo_video7362-shot1_1/img129.jpg,Images/MSR-VTT-videoTestVideo_video7362-shot1_1/img136.jpg,Images/MSR-VTT-videoTestVideo_video7362-shot1_1/img156.jpg,Images/MSR-VTT-videoTestVideo_video7362-shot1_1/img191.jpg,Images/MSR-VTT-videoTestVideo_video7362-shot1_1/img230.jpg,Images/MSR-VTT-videoTestVideo_video7362-shot1_1/img233.jpg,Images/MSR-VTT-videoTestVideo_video7362-shot1_1/img248.jpg,Images/MSR-VTT-videoTestVideo_video7362-shot1_1/img275.jpg,Images/MSR-VTT-videoTestVideo_video7362-shot1_1/img277.jpg,Images/MSR-VTT-videoTestVideo_video7362-shot1_1/img281.jpg,438,29,0,2022-06-13_07h06.01.594,annotation,2021.2.3,Win32,20.07024586,,
,,,,,,,,,,,,,,,,,0.180989583,0.106770833,1,0,0,image_3,0,55,55,23,1,290,"Only 2 women can be seen, and the woman on the right is facing directly toward the right side of the image.",H,0,7,video-storytelling-videocamping_1OzbiB1TIWI-shot12_8,Images/video-storytelling-videocamping_1OzbiB1TIWI-shot12_8/img429.jpg,Images/video-storytelling-videocamping_1OzbiB1TIWI-shot12_8/img439.jpg,Images/video-storytelling-videocamping_1OzbiB1TIWI-shot12_8/img440.jpg,Images/video-storytelling-videocamping_1OzbiB1TIWI-shot12_8/img441.jpg,Images/video-storytelling-videocamping_1OzbiB1TIWI-shot12_8/img443.jpg,Images/video-storytelling-videocamping_1OzbiB1TIWI-shot12_8/img445.jpg,Images/video-storytelling-videocamping_1OzbiB1TIWI-shot12_8/img452.jpg,Images/video-storytelling-videocamping_1OzbiB1TIWI-shot12_8/img456.jpg,Images/video-storytelling-videocamping_1OzbiB1TIWI-shot12_8/img458.jpg,Images/video-storytelling-videocamping_1OzbiB1TIWI-shot12_8/img466.jpg,1761,29,0,2022-06-13_07h06.01.594,annotation,2021.2.3,Win32,20.07024586,,
,,,,,,,,,,,,,,,,,0.180989583,0.106770833,1,0,0,image_3,0,56,56,22,1,1924,A woman sitting on top of a big tent.,M,1,8,video-storytelling-videocamping_dBXYM3dQTSo-shot10_0,Images/video-storytelling-videocamping_dBXYM3dQTSo-shot10_0/img0.jpg,Images/video-storytelling-videocamping_dBXYM3dQTSo-shot10_0/img2.jpg,Images/video-storytelling-videocamping_dBXYM3dQTSo-shot10_0/img17.jpg,Images/video-storytelling-videocamping_dBXYM3dQTSo-shot10_0/img100.jpg,Images/video-storytelling-videocamping_dBXYM3dQTSo-shot10_0/img120.jpg,Images/video-storytelling-videocamping_dBXYM3dQTSo-shot10_0/img245.jpg,Images/video-storytelling-videocamping_dBXYM3dQTSo-shot10_0/img250.jpg,Images/video-storytelling-videocamping_dBXYM3dQTSo-shot10_0/img254.jpg,Images/video-storytelling-videocamping_dBXYM3dQTSo-shot10_0/img262.jpg,Images/video-storytelling-videocamping_dBXYM3dQTSo-shot10_0/img266.jpg,141,29,0,2022-06-13_07h06.01.594,annotation,2021.2.3,Win32,20.07024586,,
,,,,,,,,,,,,,,,,,0.180989583,0.106770833,1,0,0,image_3,0,57,57,6,1,1368,a close up of a person holding a water bottle.,M,0,2,MSR-VTT-videoTestVideo_video7511-shot1_2,Images/MSR-VTT-videoTestVideo_video7511-shot1_2/img56.jpg,Images/MSR-VTT-videoTestVideo_video7511-shot1_2/img57.jpg,Images/MSR-VTT-videoTestVideo_video7511-shot1_2/img60.jpg,Images/MSR-VTT-videoTestVideo_video7511-shot1_2/img62.jpg,Images/MSR-VTT-videoTestVideo_video7511-shot1_2/img63.jpg,Images/MSR-VTT-videoTestVideo_video7511-shot1_2/img64.jpg,Images/MSR-VTT-videoTestVideo_video7511-shot1_2/img66.jpg,Images/MSR-VTT-videoTestVideo_video7511-shot1_2/img67.jpg,Images/MSR-VTT-videoTestVideo_video7511-shot1_2/img72.jpg,Images/MSR-VTT-videoTestVideo_video7511-shot1_2/img73.jpg,1740,29,0,2022-06-13_07h06.01.594,annotation,2021.2.3,Win32,20.07024586,,
,,,,,,,,,,,,,,,,,0.180989583,0.106770833,1,0,0,image_3,0,58,58,57,1,37,Horse is on left side facing the right and looking straight ahead. Can only see the man's legs behind the horse while upper body is obstructed,H,0,7,MSR-VTT-videoTestVideo_video9858-shot1_1,Images/MSR-VTT-videoTestVideo_video9858-shot1_1/img204.jpg,Images/MSR-VTT-videoTestVideo_video9858-shot1_1/img216.jpg,Images/MSR-VTT-videoTestVideo_video9858-shot1_1/img239.jpg,Images/MSR-VTT-videoTestVideo_video9858-shot1_1/img248.jpg,Images/MSR-VTT-videoTestVideo_video9858-shot1_1/img256.jpg,Images/MSR-VTT-videoTestVideo_video9858-shot1_1/img267.jpg,Images/MSR-VTT-videoTestVideo_video9858-shot1_1/img313.jpg,Images/MSR-VTT-videoTestVideo_video9858-shot1_1/img341.jpg,Images/MSR-VTT-videoTestVideo_video9858-shot1_1/img348.jpg,Images/MSR-VTT-videoTestVideo_video9858-shot1_1/img351.jpg,335,29,0,2022-06-13_07h06.01.594,annotation,2021.2.3,Win32,20.07024586,,
,,,,,,,,,,,,,,,,,0.180989583,0.106770833,1,0,0,image_3,0,59,59,34,1,1450,Two women standing next to each other in a kitchen.,M,0,5,MSR-VTT-videoTestVideo_video8345-shot1_1,Images/MSR-VTT-videoTestVideo_video8345-shot1_1/img50.jpg,Images/MSR-VTT-videoTestVideo_video8345-shot1_1/img52.jpg,Images/MSR-VTT-videoTestVideo_video8345-shot1_1/img63.jpg,Images/MSR-VTT-videoTestVideo_video8345-shot1_1/img72.jpg,Images/MSR-VTT-videoTestVideo_video8345-shot1_1/img79.jpg,Images/MSR-VTT-videoTestVideo_video8345-shot1_1/img87.jpg,Images/MSR-VTT-videoTestVideo_video8345-shot1_1/img99.jpg,Images/MSR-VTT-videoTestVideo_video8345-shot1_1/img132.jpg,Images/MSR-VTT-videoTestVideo_video8345-shot1_1/img141.jpg,Images/MSR-VTT-videoTestVideo_video8345-shot1_1/img147.jpg,955,29,0,2022-06-13_07h06.01.594,annotation,2021.2.3,Win32,20.07024586,,
,,,,,,,,,,,,,,,,,0.180989583,0.106770833,1,0,0,image_3,0,60,60,43,1,722,there are 5 white clouds on tracks ,H,0,5,MSR-VTT-videoTestVideo_video8896-shot1_1,Images/MSR-VTT-videoTestVideo_video8896-shot1_1/img96.jpg,Images/MSR-VTT-videoTestVideo_video8896-shot1_1/img109.jpg,Images/MSR-VTT-videoTestVideo_video8896-shot1_1/img129.jpg,Images/MSR-VTT-videoTestVideo_video8896-shot1_1/img136.jpg,Images/MSR-VTT-videoTestVideo_video8896-shot1_1/img146.jpg,Images/MSR-VTT-videoTestVideo_video8896-shot1_1/img198.jpg,Images/MSR-VTT-videoTestVideo_video8896-shot1_1/img231.jpg,Images/MSR-VTT-videoTestVideo_video8896-shot1_1/img272.jpg,Images/MSR-VTT-videoTestVideo_video8896-shot1_1/img314.jpg,Images/MSR-VTT-videoTestVideo_video8896-shot1_1/img367.jpg,909,29,0,2022-06-13_07h06.01.594,annotation,2021.2.3,Win32,20.07024586,,
,,,,,,,,,,,,,,,,,0.180989583,0.106770833,1,0,0,image_3,0,61,61,37,1,922,The very tip of the knife is covered by the fish.  No fingers at all can be seen. ,H,0,5,MSR-VTT-videoTestVideo_video9525-shot1_1,Images/MSR-VTT-videoTestVideo_video9525-shot1_1/img65.jpg,Images/MSR-VTT-videoTestVideo_video9525-shot1_1/img77.jpg,Images/MSR-VTT-videoTestVideo_video9525-shot1_1/img83.jpg,Images/MSR-VTT-videoTestVideo_video9525-shot1_1/img84.jpg,Images/MSR-VTT-videoTestVideo_video9525-shot1_1/img92.jpg,Images/MSR-VTT-videoTestVideo_video9525-shot1_1/img124.jpg,Images/MSR-VTT-videoTestVideo_video9525-shot1_1/img154.jpg,Images/MSR-VTT-videoTestVideo_video9525-shot1_1/img158.jpg,Images/MSR-VTT-videoTestVideo_video9525-shot1_1/img186.jpg,Images/MSR-VTT-videoTestVideo_video9525-shot1_1/img207.jpg,1563,29,0,2022-06-13_07h06.01.594,annotation,2021.2.3,Win32,20.07024586,,
,,,,,,,,,,,,,,,,,0.180989583,0.106770833,1,0,0,image_3,0,62,62,40,1,864,The woman on the left side of the image has her left hand pointed straight up at the ceiling.,H,0,3,MSR-VTT-videoTestVideo_video8176-shot1_0,Images/MSR-VTT-videoTestVideo_video8176-shot1_0/img0.jpg,Images/MSR-VTT-videoTestVideo_video8176-shot1_0/img54.jpg,Images/MSR-VTT-videoTestVideo_video8176-shot1_0/img73.jpg,Images/MSR-VTT-videoTestVideo_video8176-shot1_0/img88.jpg,Images/MSR-VTT-videoTestVideo_video8176-shot1_0/img109.jpg,Images/MSR-VTT-videoTestVideo_video8176-shot1_0/img110.jpg,Images/MSR-VTT-videoTestVideo_video8176-shot1_0/img112.jpg,Images/MSR-VTT-videoTestVideo_video8176-shot1_0/img114.jpg,Images/MSR-VTT-videoTestVideo_video8176-shot1_0/img139.jpg,Images/MSR-VTT-videoTestVideo_video8176-shot1_0/img146.jpg,1568,29,0,2022-06-13_07h06.01.594,annotation,2021.2.3,Win32,20.07024586,,
,,,,,,,,,,,,,,,,,,,,,,,,,,,,,,,,,,,,,,,,,,,,,,,2022-06-13_07h06.01.594,annotation,2021.2.3,Win32,20.07024586,space,48.6699
