mturk,key_resp_2.keys,key_resp_2.rt,key_resp_3.keys,key_resp_3.rt,mouse_2.x,mouse_2.y,mouse_2.leftButton,mouse_2.midButton,mouse_2.rightButton,mouse_2.clicked_name,key_resp_5.keys,key_resp_5.rt,key_resp.keys,key_resp.rt,key_resp_6.keys,key_resp_6.rt,mouse.x,mouse.y,mouse.leftButton,mouse.midButton,mouse.rightButton,mouse.clicked_name,trials.thisRepN,trials.thisTrialN,trials.thisN,trials.thisIndex,trials.ran,N,caption,class_caption,model_guessed,target_idx,image_set,img1,img2,img3,img4,img5,img6,img7,img8,img9,img10,Q_id,block,is_check,date,expName,psychopyVersion,OS,frameRate,key_resp_7.keys,key_resp_7.rt
4402450,space,13.539,space,8.015,0.240132912,0.106617148,1,0,0,ex4,space,14.445,space,12.105,space,3.203,0.224501902,0.122248266,1,0,0,image_3,0,0,0,52,1,1084,A person using a silver plate to make a cake.,M,0,1,YouCook-video0036-shot0_0,Images/YouCook-video0036-shot0_0/img0.jpg,Images/YouCook-video0036-shot0_0/img21.jpg,Images/YouCook-video0036-shot0_0/img49.jpg,Images/YouCook-video0036-shot0_0/img111.jpg,Images/YouCook-video0036-shot0_0/img116.jpg,Images/YouCook-video0036-shot0_0/img220.jpg,Images/YouCook-video0036-shot0_0/img241.jpg,Images/YouCook-video0036-shot0_0/img247.jpg,Images/YouCook-video0036-shot0_0/img270.jpg,Images/YouCook-video0036-shot0_0/img288.jpg,593,33,0,2022-06-16_04h16.08.481,annotation,2021.2.3,Win32,60.0024001,,
,,,,,,,,,,,,,,,,,-0.504949822,0.114432654,1,0,0,image_0,0,1,1,34,1,1679,A man standing in front of a group of people.,M,0,6,MSR-VTT-videoTestVideo_video8801-shot2_0,Images/MSR-VTT-videoTestVideo_video8801-shot2_0/img1.jpg,Images/MSR-VTT-videoTestVideo_video8801-shot2_0/img13.jpg,Images/MSR-VTT-videoTestVideo_video8801-shot2_0/img34.jpg,Images/MSR-VTT-videoTestVideo_video8801-shot2_0/img60.jpg,Images/MSR-VTT-videoTestVideo_video8801-shot2_0/img84.jpg,Images/MSR-VTT-videoTestVideo_video8801-shot2_0/img90.jpg,Images/MSR-VTT-videoTestVideo_video8801-shot2_0/img110.jpg,Images/MSR-VTT-videoTestVideo_video8801-shot2_0/img157.jpg,Images/MSR-VTT-videoTestVideo_video8801-shot2_0/img196.jpg,Images/MSR-VTT-videoTestVideo_video8801-shot2_0/img200.jpg,187,33,0,2022-06-16_04h16.08.481,annotation,2021.2.3,Win32,60.0024001,,
,,,,,,,,,,,,,,,,,-0.267878077,0.098801607,1,0,0,image_1,0,2,2,37,1,177,The girl is just starting to drop what she had in her hand and you can see that her fingers are not gripping the object. ,H,0,7,video-storytelling-videochristmas_5RR_sRzKODA-shot23_5,Images/video-storytelling-videochristmas_5RR_sRzKODA-shot23_5/img226.jpg,Images/video-storytelling-videochristmas_5RR_sRzKODA-shot23_5/img236.jpg,Images/video-storytelling-videochristmas_5RR_sRzKODA-shot23_5/img243.jpg,Images/video-storytelling-videochristmas_5RR_sRzKODA-shot23_5/img254.jpg,Images/video-storytelling-videochristmas_5RR_sRzKODA-shot23_5/img256.jpg,Images/video-storytelling-videochristmas_5RR_sRzKODA-shot23_5/img261.jpg,Images/video-storytelling-videochristmas_5RR_sRzKODA-shot23_5/img263.jpg,Images/video-storytelling-videochristmas_5RR_sRzKODA-shot23_5/img264.jpg,Images/video-storytelling-videochristmas_5RR_sRzKODA-shot23_5/img266.jpg,Images/video-storytelling-videochristmas_5RR_sRzKODA-shot23_5/img267.jpg,397,33,0,2022-06-16_04h16.08.481,annotation,2021.2.3,Win32,60.0024001,,
,,,,,,,,,,,,,,,,,0.227107094,0.106617148,1,0,0,image_3,0,3,3,45,1,1940,A boy standing next to a girl in a room.,M,0,6,MSR-VTT-videoTestVideo_video8964-shot1_0,Images/MSR-VTT-videoTestVideo_video8964-shot1_0/img0.jpg,Images/MSR-VTT-videoTestVideo_video8964-shot1_0/img1.jpg,Images/MSR-VTT-videoTestVideo_video8964-shot1_0/img14.jpg,Images/MSR-VTT-videoTestVideo_video8964-shot1_0/img20.jpg,Images/MSR-VTT-videoTestVideo_video8964-shot1_0/img21.jpg,Images/MSR-VTT-videoTestVideo_video8964-shot1_0/img24.jpg,Images/MSR-VTT-videoTestVideo_video8964-shot1_0/img26.jpg,Images/MSR-VTT-videoTestVideo_video8964-shot1_0/img30.jpg,Images/MSR-VTT-videoTestVideo_video8964-shot1_0/img67.jpg,Images/MSR-VTT-videoTestVideo_video8964-shot1_0/img76.jpg,480,33,0,2022-06-16_04h16.08.481,annotation,2021.2.3,Win32,60.0024001,,
,,,,,,,,,,,,,,,,,0.284421038,0.141787137,1,0,0,image_3,0,4,4,56,1,665,The woman looks directly forward with narrowed eyes and a slightly open mouth,H,0,3,MSR-VTT-videoTestVideo_video8454-shot1_2,Images/MSR-VTT-videoTestVideo_video8454-shot1_2/img173.jpg,Images/MSR-VTT-videoTestVideo_video8454-shot1_2/img181.jpg,Images/MSR-VTT-videoTestVideo_video8454-shot1_2/img184.jpg,Images/MSR-VTT-videoTestVideo_video8454-shot1_2/img188.jpg,Images/MSR-VTT-videoTestVideo_video8454-shot1_2/img206.jpg,Images/MSR-VTT-videoTestVideo_video8454-shot1_2/img220.jpg,Images/MSR-VTT-videoTestVideo_video8454-shot1_2/img225.jpg,Images/MSR-VTT-videoTestVideo_video8454-shot1_2/img228.jpg,Images/MSR-VTT-videoTestVideo_video8454-shot1_2/img229.jpg,Images/MSR-VTT-videoTestVideo_video8454-shot1_2/img230.jpg,1369,33,0,2022-06-16_04h16.08.481,annotation,2021.2.3,Win32,60.0024001,,
,,,,,,,,,,,,,,,,,0.217988957,0.156115658,1,0,0,image_3,0,5,5,13,1,1500,A view of a house with a fence and a fence.,M,0,5,MSR-VTT-videoTestVideo_video8931-shot1_0,Images/MSR-VTT-videoTestVideo_video8931-shot1_0/img22.jpg,Images/MSR-VTT-videoTestVideo_video8931-shot1_0/img38.jpg,Images/MSR-VTT-videoTestVideo_video8931-shot1_0/img64.jpg,Images/MSR-VTT-videoTestVideo_video8931-shot1_0/img117.jpg,Images/MSR-VTT-videoTestVideo_video8931-shot1_0/img130.jpg,Images/MSR-VTT-videoTestVideo_video8931-shot1_0/img223.jpg,Images/MSR-VTT-videoTestVideo_video8931-shot1_0/img247.jpg,Images/MSR-VTT-videoTestVideo_video8931-shot1_0/img249.jpg,Images/MSR-VTT-videoTestVideo_video8931-shot1_0/img263.jpg,Images/MSR-VTT-videoTestVideo_video8931-shot1_0/img275.jpg,1295,33,0,2022-06-16_04h16.08.481,annotation,2021.2.3,Win32,60.0024001,,
,,,,,,,,,,,,,,,,,-0.236615842,-0.095284644,1,0,0,image_6,0,6,6,35,1,645,"Brown powder is starting to fall out of the bowl, but has not hit the white substance.",H,0,2,YouCook-video0008-shot1_1,Images/YouCook-video0008-shot1_1/img458.jpg,Images/YouCook-video0008-shot1_1/img498.jpg,Images/YouCook-video0008-shot1_1/img545.jpg,Images/YouCook-video0008-shot1_1/img553.jpg,Images/YouCook-video0008-shot1_1/img589.jpg,Images/YouCook-video0008-shot1_1/img603.jpg,Images/YouCook-video0008-shot1_1/img653.jpg,Images/YouCook-video0008-shot1_1/img692.jpg,Images/YouCook-video0008-shot1_1/img742.jpg,Images/YouCook-video0008-shot1_1/img763.jpg,1320,33,0,2022-06-16_04h16.08.481,annotation,2021.2.3,Win32,60.0024001,,
,,,,,,,,,,,,,,,,,0.474599501,-0.204702397,1,0,0,image_9,0,7,7,7,1,1807,A person holding a metal pot on top of a table.,M,0,5,MSR-VTT-videoTestVideo_video9693-shot2_0,Images/MSR-VTT-videoTestVideo_video9693-shot2_0/img0.jpg,Images/MSR-VTT-videoTestVideo_video9693-shot2_0/img16.jpg,Images/MSR-VTT-videoTestVideo_video9693-shot2_0/img22.jpg,Images/MSR-VTT-videoTestVideo_video9693-shot2_0/img24.jpg,Images/MSR-VTT-videoTestVideo_video9693-shot2_0/img26.jpg,Images/MSR-VTT-videoTestVideo_video9693-shot2_0/img30.jpg,Images/MSR-VTT-videoTestVideo_video9693-shot2_0/img35.jpg,Images/MSR-VTT-videoTestVideo_video9693-shot2_0/img48.jpg,Images/MSR-VTT-videoTestVideo_video9693-shot2_0/img62.jpg,Images/MSR-VTT-videoTestVideo_video9693-shot2_0/img67.jpg,93,33,0,2022-06-16_04h16.08.481,annotation,2021.2.3,Win32,60.0024001,,
,,,,,,,,,,,,,,,,,0.479809885,-0.123941652,1,0,0,image_9,0,8,8,9,1,693,The car front and back cannot be seen.  The front wheel has two orange spots and the back wheel has one.,H,0,1,MSR-VTT-videoTestVideo_video8560-shot1_3,Images/MSR-VTT-videoTestVideo_video8560-shot1_3/img252.jpg,Images/MSR-VTT-videoTestVideo_video8560-shot1_3/img256.jpg,Images/MSR-VTT-videoTestVideo_video8560-shot1_3/img265.jpg,Images/MSR-VTT-videoTestVideo_video8560-shot1_3/img268.jpg,Images/MSR-VTT-videoTestVideo_video8560-shot1_3/img275.jpg,Images/MSR-VTT-videoTestVideo_video8560-shot1_3/img281.jpg,Images/MSR-VTT-videoTestVideo_video8560-shot1_3/img287.jpg,Images/MSR-VTT-videoTestVideo_video8560-shot1_3/img298.jpg,Images/MSR-VTT-videoTestVideo_video8560-shot1_3/img302.jpg,Images/MSR-VTT-videoTestVideo_video8560-shot1_3/img311.jpg,552,33,0,2022-06-16_04h16.08.481,annotation,2021.2.3,Win32,60.0024001,,
,,,,,,,,,,,,,,,,,0.509769489,0.156115658,1,0,0,image_4,0,9,9,17,1,1071,A man standing next to a mirror in a bathroom.,M,0,1,MSR-VTT-videoTestVideo_video8325-shot3_0,Images/MSR-VTT-videoTestVideo_video8325-shot3_0/img0.jpg,Images/MSR-VTT-videoTestVideo_video8325-shot3_0/img3.jpg,Images/MSR-VTT-videoTestVideo_video8325-shot3_0/img8.jpg,Images/MSR-VTT-videoTestVideo_video8325-shot3_0/img13.jpg,Images/MSR-VTT-videoTestVideo_video8325-shot3_0/img25.jpg,Images/MSR-VTT-videoTestVideo_video8325-shot3_0/img28.jpg,Images/MSR-VTT-videoTestVideo_video8325-shot3_0/img33.jpg,Images/MSR-VTT-videoTestVideo_video8325-shot3_0/img38.jpg,Images/MSR-VTT-videoTestVideo_video8325-shot3_0/img40.jpg,Images/MSR-VTT-videoTestVideo_video8325-shot3_0/img41.jpg,1416,33,0,2022-06-16_04h16.08.481,annotation,2021.2.3,Win32,60.0024001,,
,,,,,,,,,,,,,,,,,0.280513285,-0.149993503,1,0,0,image_8,0,10,10,12,1,1408,A woman holding an umbrella in front of a table.,M,0,2,MSR-VTT-videoTestVideo_video7335-shot1_2,Images/MSR-VTT-videoTestVideo_video7335-shot1_2/img119.jpg,Images/MSR-VTT-videoTestVideo_video7335-shot1_2/img124.jpg,Images/MSR-VTT-videoTestVideo_video7335-shot1_2/img135.jpg,Images/MSR-VTT-videoTestVideo_video7335-shot1_2/img143.jpg,Images/MSR-VTT-videoTestVideo_video7335-shot1_2/img147.jpg,Images/MSR-VTT-videoTestVideo_video7335-shot1_2/img150.jpg,Images/MSR-VTT-videoTestVideo_video7335-shot1_2/img157.jpg,Images/MSR-VTT-videoTestVideo_video7335-shot1_2/img161.jpg,Images/MSR-VTT-videoTestVideo_video7335-shot1_2/img163.jpg,Images/MSR-VTT-videoTestVideo_video7335-shot1_2/img168.jpg,234,33,0,2022-06-16_04h16.08.481,annotation,2021.2.3,Win32,60.0024001,,
,,,,,,,,,,,,,,,,,0.006968884,-0.131757229,1,0,0,image_7,0,11,11,19,1,1666,A picture of a dog playing with a raccoon.,M,1,6,MSR-VTT-videoTestVideo_video9903-shot1_3,Images/MSR-VTT-videoTestVideo_video9903-shot1_3/img94.jpg,Images/MSR-VTT-videoTestVideo_video9903-shot1_3/img99.jpg,Images/MSR-VTT-videoTestVideo_video9903-shot1_3/img103.jpg,Images/MSR-VTT-videoTestVideo_video9903-shot1_3/img106.jpg,Images/MSR-VTT-videoTestVideo_video9903-shot1_3/img109.jpg,Images/MSR-VTT-videoTestVideo_video9903-shot1_3/img116.jpg,Images/MSR-VTT-videoTestVideo_video9903-shot1_3/img118.jpg,Images/MSR-VTT-videoTestVideo_video9903-shot1_3/img139.jpg,Images/MSR-VTT-videoTestVideo_video9903-shot1_3/img141.jpg,Images/MSR-VTT-videoTestVideo_video9903-shot1_3/img144.jpg,838,33,0,2022-06-16_04h16.08.481,annotation,2021.2.3,Win32,60.0024001,,
,,,,,,,,,,,,,,,,,0.240132912,0.127458615,1,0,0,image_3,0,12,12,18,1,1523,A man standing next to a woman in a classroom.,M,0,2,MSR-VTT-videoTestVideo_video9228-shot4_1,Images/MSR-VTT-videoTestVideo_video9228-shot4_1/img102.jpg,Images/MSR-VTT-videoTestVideo_video9228-shot4_1/img128.jpg,Images/MSR-VTT-videoTestVideo_video9228-shot4_1/img134.jpg,Images/MSR-VTT-videoTestVideo_video9228-shot4_1/img147.jpg,Images/MSR-VTT-videoTestVideo_video9228-shot4_1/img172.jpg,Images/MSR-VTT-videoTestVideo_video9228-shot4_1/img246.jpg,Images/MSR-VTT-videoTestVideo_video9228-shot4_1/img252.jpg,Images/MSR-VTT-videoTestVideo_video9228-shot4_1/img257.jpg,Images/MSR-VTT-videoTestVideo_video9228-shot4_1/img262.jpg,Images/MSR-VTT-videoTestVideo_video9228-shot4_1/img269.jpg,1652,33,0,2022-06-16_04h16.08.481,annotation,2021.2.3,Win32,60.0024001,,
,,,,,,,,,,,,,,,,,-0.006057006,0.14048454,1,0,0,image_2,0,13,13,60,1,2,Green type writer with a red tape. ,H,,9,open-images-531_0dd4eb59d465a8be,Checks/check3/open-images-503_1ccd6fa641154ebbimg7.jpg,Checks/check3/open-images-1852_00faf52058ad28b8img4.jpg,Checks/check3/open-images-386_1b2e28d6d994603eimg1.jpg,Checks/check3/open-images-471_1121e9f97c200ac0img8.jpg,Checks/check3/open-images-1886_3db71eaddb618934img8.jpg,Checks/check3/open-images-1696_20a4ebf0c0f76b05img6.jpg,Checks/check3/open-images-2447_128483a48e1552f4img6.jpg,Checks/check3/open-images-2994_9965cbf8aa20bda0img2.jpg,Checks/check3/open-images-1068_03d63613107970b3img6.jpg,Checks/check3/open-images-531_0dd4eb59d465a8beimg9.jpg,,,1,2022-06-16_04h16.08.481,annotation,2021.2.3,Win32,60.0024001,,
,,,,,,,,,,,,,,,,,0.228409583,0.111827533,1,0,0,image_3,0,14,14,26,1,9,The woman has just emerged from her face being blocked by a camera stand in teh background as she is escorted by a man with an umbrella,H,0,6,video-storytelling-videowedding_de8dLXvgV-I-shot6_0,Images/video-storytelling-videowedding_de8dLXvgV-I-shot6_0/img0.jpg,Images/video-storytelling-videowedding_de8dLXvgV-I-shot6_0/img16.jpg,Images/video-storytelling-videowedding_de8dLXvgV-I-shot6_0/img25.jpg,Images/video-storytelling-videowedding_de8dLXvgV-I-shot6_0/img40.jpg,Images/video-storytelling-videowedding_de8dLXvgV-I-shot6_0/img53.jpg,Images/video-storytelling-videowedding_de8dLXvgV-I-shot6_0/img60.jpg,Images/video-storytelling-videowedding_de8dLXvgV-I-shot6_0/img69.jpg,Images/video-storytelling-videowedding_de8dLXvgV-I-shot6_0/img72.jpg,Images/video-storytelling-videowedding_de8dLXvgV-I-shot6_0/img81.jpg,Images/video-storytelling-videowedding_de8dLXvgV-I-shot6_0/img91.jpg,168,33,0,2022-06-16_04h16.08.481,annotation,2021.2.3,Win32,60.0024001,,
,,,,,,,,,,,,,,,,,0.228409583,0.111827533,1,0,0,image_3,0,15,15,39,1,620,The door is open halfway and half of the person is visible.,H,0,2,MSR-VTT-videoTestVideo_video8555-shot6_0,Images/MSR-VTT-videoTestVideo_video8555-shot6_0/img0.jpg,Images/MSR-VTT-videoTestVideo_video8555-shot6_0/img5.jpg,Images/MSR-VTT-videoTestVideo_video8555-shot6_0/img12.jpg,Images/MSR-VTT-videoTestVideo_video8555-shot6_0/img17.jpg,Images/MSR-VTT-videoTestVideo_video8555-shot6_0/img20.jpg,Images/MSR-VTT-videoTestVideo_video8555-shot6_0/img23.jpg,Images/MSR-VTT-videoTestVideo_video8555-shot6_0/img39.jpg,Images/MSR-VTT-videoTestVideo_video8555-shot6_0/img45.jpg,Images/MSR-VTT-videoTestVideo_video8555-shot6_0/img50.jpg,Images/MSR-VTT-videoTestVideo_video8555-shot6_0/img57.jpg,8,33,0,2022-06-16_04h16.08.481,annotation,2021.2.3,Win32,60.0024001,,
,,,,,,,,,,,,,,,,,0.262277082,0.144392329,1,0,0,image_3,0,16,16,31,1,1623,A man that is in a bathing suit.,M,0,2,MSR-VTT-videoTestVideo_video8025-shot1_0,Images/MSR-VTT-videoTestVideo_video8025-shot1_0/img0.jpg,Images/MSR-VTT-videoTestVideo_video8025-shot1_0/img12.jpg,Images/MSR-VTT-videoTestVideo_video8025-shot1_0/img17.jpg,Images/MSR-VTT-videoTestVideo_video8025-shot1_0/img20.jpg,Images/MSR-VTT-videoTestVideo_video8025-shot1_0/img22.jpg,Images/MSR-VTT-videoTestVideo_video8025-shot1_0/img25.jpg,Images/MSR-VTT-videoTestVideo_video8025-shot1_0/img65.jpg,Images/MSR-VTT-videoTestVideo_video8025-shot1_0/img69.jpg,Images/MSR-VTT-videoTestVideo_video8025-shot1_0/img72.jpg,Images/MSR-VTT-videoTestVideo_video8025-shot1_0/img80.jpg,406,33,0,2022-06-16_04h16.08.481,annotation,2021.2.3,Win32,60.0024001,,
,,,,,,,,,,,,,,,,,0.233619967,0.104011956,1,0,0,image_3,0,17,17,0,1,1443,A dog is holding a frisbee in front of a dog.,M,0,2,MSR-VTT-videoTestVideo_video8655-shot1_0,Images/MSR-VTT-videoTestVideo_video8655-shot1_0/img0.jpg,Images/MSR-VTT-videoTestVideo_video8655-shot1_0/img4.jpg,Images/MSR-VTT-videoTestVideo_video8655-shot1_0/img7.jpg,Images/MSR-VTT-videoTestVideo_video8655-shot1_0/img8.jpg,Images/MSR-VTT-videoTestVideo_video8655-shot1_0/img12.jpg,Images/MSR-VTT-videoTestVideo_video8655-shot1_0/img14.jpg,Images/MSR-VTT-videoTestVideo_video8655-shot1_0/img15.jpg,Images/MSR-VTT-videoTestVideo_video8655-shot1_0/img17.jpg,Images/MSR-VTT-videoTestVideo_video8655-shot1_0/img19.jpg,Images/MSR-VTT-videoTestVideo_video8655-shot1_0/img20.jpg,1012,33,0,2022-06-16_04h16.08.481,annotation,2021.2.3,Win32,60.0024001,,
,,,,,,,,,,,,,,,,,0.238830423,0.106617148,1,0,0,image_3,0,18,18,55,1,841,You can clearly see another hand of the person on the right in the very foreground of the picture. The fingers of the hand on the far right are not really blocking the person in blue in the background.  ,H,0,7,MSR-VTT-videoTestVideo_video9875-shot6_0,Images/MSR-VTT-videoTestVideo_video9875-shot6_0/img0.jpg,Images/MSR-VTT-videoTestVideo_video9875-shot6_0/img4.jpg,Images/MSR-VTT-videoTestVideo_video9875-shot6_0/img9.jpg,Images/MSR-VTT-videoTestVideo_video9875-shot6_0/img11.jpg,Images/MSR-VTT-videoTestVideo_video9875-shot6_0/img16.jpg,Images/MSR-VTT-videoTestVideo_video9875-shot6_0/img26.jpg,Images/MSR-VTT-videoTestVideo_video9875-shot6_0/img32.jpg,Images/MSR-VTT-videoTestVideo_video9875-shot6_0/img40.jpg,Images/MSR-VTT-videoTestVideo_video9875-shot6_0/img44.jpg,Images/MSR-VTT-videoTestVideo_video9875-shot6_0/img57.jpg,682,33,0,2022-06-16_04h16.08.481,annotation,2021.2.3,Win32,60.0024001,,
,,,,,,,,,,,,,,,,,0.211475869,0.132668999,1,0,0,image_3,0,19,19,21,1,1858,A woman is playing with a frisbee in the grass.,M,0,1,MSR-VTT-videoTestVideo_video7268-shot1_8,Images/MSR-VTT-videoTestVideo_video7268-shot1_8/img409.jpg,Images/MSR-VTT-videoTestVideo_video7268-shot1_8/img412.jpg,Images/MSR-VTT-videoTestVideo_video7268-shot1_8/img414.jpg,Images/MSR-VTT-videoTestVideo_video7268-shot1_8/img415.jpg,Images/MSR-VTT-videoTestVideo_video7268-shot1_8/img417.jpg,Images/MSR-VTT-videoTestVideo_video7268-shot1_8/img420.jpg,Images/MSR-VTT-videoTestVideo_video7268-shot1_8/img426.jpg,Images/MSR-VTT-videoTestVideo_video7268-shot1_8/img429.jpg,Images/MSR-VTT-videoTestVideo_video7268-shot1_8/img433.jpg,Images/MSR-VTT-videoTestVideo_video7268-shot1_8/img437.jpg,23,33,0,2022-06-16_04h16.08.481,annotation,2021.2.3,Win32,60.0024001,,
,,,,,,,,,,,,,,,,,0.211475869,0.132668999,1,0,0,image_3,0,20,20,41,1,607,You can just barely see the person's right leg on the right side of the image.  The left eye of the person on the left has just come into view. ,H,1,3,video-storytelling-videocamping_1OzbiB1TIWI-shot17_3,Images/video-storytelling-videocamping_1OzbiB1TIWI-shot17_3/img147.jpg,Images/video-storytelling-videocamping_1OzbiB1TIWI-shot17_3/img148.jpg,Images/video-storytelling-videocamping_1OzbiB1TIWI-shot17_3/img149.jpg,Images/video-storytelling-videocamping_1OzbiB1TIWI-shot17_3/img152.jpg,Images/video-storytelling-videocamping_1OzbiB1TIWI-shot17_3/img153.jpg,Images/video-storytelling-videocamping_1OzbiB1TIWI-shot17_3/img156.jpg,Images/video-storytelling-videocamping_1OzbiB1TIWI-shot17_3/img157.jpg,Images/video-storytelling-videocamping_1OzbiB1TIWI-shot17_3/img159.jpg,Images/video-storytelling-videocamping_1OzbiB1TIWI-shot17_3/img161.jpg,Images/video-storytelling-videocamping_1OzbiB1TIWI-shot17_3/img166.jpg,163,33,0,2022-06-16_04h16.08.481,annotation,2021.2.3,Win32,60.0024001,,
,,,,,,,,,,,,,,,,,0.211475869,0.132668999,1,0,0,image_3,0,21,21,42,1,1747,A view of a city street with traffic lights.,M,0,5,MSR-VTT-videoTestVideo_video8070-shot1_11,Images/MSR-VTT-videoTestVideo_video8070-shot1_11/img529.jpg,Images/MSR-VTT-videoTestVideo_video8070-shot1_11/img534.jpg,Images/MSR-VTT-videoTestVideo_video8070-shot1_11/img536.jpg,Images/MSR-VTT-videoTestVideo_video8070-shot1_11/img538.jpg,Images/MSR-VTT-videoTestVideo_video8070-shot1_11/img542.jpg,Images/MSR-VTT-videoTestVideo_video8070-shot1_11/img545.jpg,Images/MSR-VTT-videoTestVideo_video8070-shot1_11/img547.jpg,Images/MSR-VTT-videoTestVideo_video8070-shot1_11/img557.jpg,Images/MSR-VTT-videoTestVideo_video8070-shot1_11/img560.jpg,Images/MSR-VTT-videoTestVideo_video8070-shot1_11/img563.jpg,1157,33,0,2022-06-16_04h16.08.481,annotation,2021.2.3,Win32,60.0024001,,
,,,,,,,,,,,,,,,,,0.212778572,0.136576788,1,0,0,image_3,0,22,22,20,1,1536,A man standing in front of a crowd of people.,M,0,2,MSR-VTT-videoTestVideo_video7960-shot0_2,Images/MSR-VTT-videoTestVideo_video7960-shot0_2/img80.jpg,Images/MSR-VTT-videoTestVideo_video7960-shot0_2/img81.jpg,Images/MSR-VTT-videoTestVideo_video7960-shot0_2/img83.jpg,Images/MSR-VTT-videoTestVideo_video7960-shot0_2/img86.jpg,Images/MSR-VTT-videoTestVideo_video7960-shot0_2/img91.jpg,Images/MSR-VTT-videoTestVideo_video7960-shot0_2/img92.jpg,Images/MSR-VTT-videoTestVideo_video7960-shot0_2/img94.jpg,Images/MSR-VTT-videoTestVideo_video7960-shot0_2/img96.jpg,Images/MSR-VTT-videoTestVideo_video7960-shot0_2/img97.jpg,Images/MSR-VTT-videoTestVideo_video7960-shot0_2/img98.jpg,24,33,0,2022-06-16_04h16.08.481,annotation,2021.2.3,Win32,60.0024001,,
,,,,,,,,,,,,,,,,,0.212778572,0.136576788,1,0,0,image_3,0,23,23,16,1,861,"Child is going towards the bucket, but has no hands on it yet.",H,1,3,MSR-VTT-videoTestVideo_video9338-shot1_2,Images/MSR-VTT-videoTestVideo_video9338-shot1_2/img361.jpg,Images/MSR-VTT-videoTestVideo_video9338-shot1_2/img364.jpg,Images/MSR-VTT-videoTestVideo_video9338-shot1_2/img374.jpg,Images/MSR-VTT-videoTestVideo_video9338-shot1_2/img384.jpg,Images/MSR-VTT-videoTestVideo_video9338-shot1_2/img392.jpg,Images/MSR-VTT-videoTestVideo_video9338-shot1_2/img411.jpg,Images/MSR-VTT-videoTestVideo_video9338-shot1_2/img424.jpg,Images/MSR-VTT-videoTestVideo_video9338-shot1_2/img429.jpg,Images/MSR-VTT-videoTestVideo_video9338-shot1_2/img443.jpg,Images/MSR-VTT-videoTestVideo_video9338-shot1_2/img448.jpg,332,33,0,2022-06-16_04h16.08.481,annotation,2021.2.3,Win32,60.0024001,,
,,,,,,,,,,,,,,,,,0.036928631,-0.138270174,1,0,0,image_7,0,24,24,51,1,381,his head is fully bent to the back while his face is up while taking the shut,H,0,6,MSR-VTT-videoTestVideo_video7726-shot3_0,Images/MSR-VTT-videoTestVideo_video7726-shot3_0/img1.jpg,Images/MSR-VTT-videoTestVideo_video7726-shot3_0/img4.jpg,Images/MSR-VTT-videoTestVideo_video7726-shot3_0/img6.jpg,Images/MSR-VTT-videoTestVideo_video7726-shot3_0/img9.jpg,Images/MSR-VTT-videoTestVideo_video7726-shot3_0/img11.jpg,Images/MSR-VTT-videoTestVideo_video7726-shot3_0/img16.jpg,Images/MSR-VTT-videoTestVideo_video7726-shot3_0/img21.jpg,Images/MSR-VTT-videoTestVideo_video7726-shot3_0/img34.jpg,Images/MSR-VTT-videoTestVideo_video7726-shot3_0/img46.jpg,Images/MSR-VTT-videoTestVideo_video7726-shot3_0/img48.jpg,1666,33,0,2022-06-16_04h16.08.481,annotation,2021.2.3,Win32,60.0024001,,
,,,,,,,,,,,,,,,,,0.036928631,-0.138270174,1,0,0,image_7,0,25,25,4,1,711,The black helmet wrestler is sitting on the blue wrestler with his left hand pressed straight down.,H,0,5,MSR-VTT-videoTestVideo_video7286-shot1_0,Images/MSR-VTT-videoTestVideo_video7286-shot1_0/img0.jpg,Images/MSR-VTT-videoTestVideo_video7286-shot1_0/img6.jpg,Images/MSR-VTT-videoTestVideo_video7286-shot1_0/img12.jpg,Images/MSR-VTT-videoTestVideo_video7286-shot1_0/img40.jpg,Images/MSR-VTT-videoTestVideo_video7286-shot1_0/img75.jpg,Images/MSR-VTT-videoTestVideo_video7286-shot1_0/img81.jpg,Images/MSR-VTT-videoTestVideo_video7286-shot1_0/img85.jpg,Images/MSR-VTT-videoTestVideo_video7286-shot1_0/img92.jpg,Images/MSR-VTT-videoTestVideo_video7286-shot1_0/img102.jpg,Images/MSR-VTT-videoTestVideo_video7286-shot1_0/img105.jpg,1022,33,0,2022-06-16_04h16.08.481,annotation,2021.2.3,Win32,60.0024001,,
,,,,,,,,,,,,,,,,,0.001758643,0.126155983,1,0,0,image_2,0,26,26,3,1,1561,A woman in a white robe standing in front of a white van.,M,0,1,MSR-VTT-videoTestVideo_video8243-shot0_1,Images/MSR-VTT-videoTestVideo_video8243-shot0_1/img39.jpg,Images/MSR-VTT-videoTestVideo_video8243-shot0_1/img42.jpg,Images/MSR-VTT-videoTestVideo_video8243-shot0_1/img44.jpg,Images/MSR-VTT-videoTestVideo_video8243-shot0_1/img45.jpg,Images/MSR-VTT-videoTestVideo_video8243-shot0_1/img47.jpg,Images/MSR-VTT-videoTestVideo_video8243-shot0_1/img49.jpg,Images/MSR-VTT-videoTestVideo_video8243-shot0_1/img52.jpg,Images/MSR-VTT-videoTestVideo_video8243-shot0_1/img54.jpg,Images/MSR-VTT-videoTestVideo_video8243-shot0_1/img56.jpg,Images/MSR-VTT-videoTestVideo_video8243-shot0_1/img60.jpg,89,33,0,2022-06-16_04h16.08.481,annotation,2021.2.3,Win32,60.0024001,,
,,,,,,,,,,,,,,,,,0.246645857,0.139181944,1,0,0,image_3,0,27,27,46,1,1173,A picture of a man holding a surfboard on a beach.,M,0,2,MSR-VTT-videoTestVideo_video9088-shot1_1,Images/MSR-VTT-videoTestVideo_video9088-shot1_1/img209.jpg,Images/MSR-VTT-videoTestVideo_video9088-shot1_1/img219.jpg,Images/MSR-VTT-videoTestVideo_video9088-shot1_1/img278.jpg,Images/MSR-VTT-videoTestVideo_video9088-shot1_1/img320.jpg,Images/MSR-VTT-videoTestVideo_video9088-shot1_1/img324.jpg,Images/MSR-VTT-videoTestVideo_video9088-shot1_1/img327.jpg,Images/MSR-VTT-videoTestVideo_video9088-shot1_1/img329.jpg,Images/MSR-VTT-videoTestVideo_video9088-shot1_1/img349.jpg,Images/MSR-VTT-videoTestVideo_video9088-shot1_1/img357.jpg,Images/MSR-VTT-videoTestVideo_video9088-shot1_1/img395.jpg,884,33,0,2022-06-16_04h16.08.481,annotation,2021.2.3,Win32,60.0024001,,
,,,,,,,,,,,,,,,,,0.267487324,0.130063807,1,0,0,image_3,0,28,28,32,1,2006,A baby sitting on top of a couch next to a bed.,M,0,7,video-storytelling-videochristmas_5RR_sRzKODA-shot30_12,Images/video-storytelling-videochristmas_5RR_sRzKODA-shot30_12/img545.jpg,Images/video-storytelling-videochristmas_5RR_sRzKODA-shot30_12/img549.jpg,Images/video-storytelling-videochristmas_5RR_sRzKODA-shot30_12/img555.jpg,Images/video-storytelling-videochristmas_5RR_sRzKODA-shot30_12/img570.jpg,Images/video-storytelling-videochristmas_5RR_sRzKODA-shot30_12/img576.jpg,Images/video-storytelling-videochristmas_5RR_sRzKODA-shot30_12/img582.jpg,Images/video-storytelling-videochristmas_5RR_sRzKODA-shot30_12/img584.jpg,Images/video-storytelling-videochristmas_5RR_sRzKODA-shot30_12/img585.jpg,Images/video-storytelling-videochristmas_5RR_sRzKODA-shot30_12/img586.jpg,Images/video-storytelling-videochristmas_5RR_sRzKODA-shot30_12/img587.jpg,1259,33,0,2022-06-16_04h16.08.481,annotation,2021.2.3,Win32,60.0024001,,
,,,,,,,,,,,,,,,,,0.465481578,-0.133059789,1,0,0,image_9,0,29,29,29,1,8,You can just barely see the front corner of the white van that was next to the black car. ,H,0,2,MSR-VTT-videoTestVideo_video8560-shot1_3,Images/MSR-VTT-videoTestVideo_video8560-shot1_3/img252.jpg,Images/MSR-VTT-videoTestVideo_video8560-shot1_3/img256.jpg,Images/MSR-VTT-videoTestVideo_video8560-shot1_3/img265.jpg,Images/MSR-VTT-videoTestVideo_video8560-shot1_3/img268.jpg,Images/MSR-VTT-videoTestVideo_video8560-shot1_3/img275.jpg,Images/MSR-VTT-videoTestVideo_video8560-shot1_3/img281.jpg,Images/MSR-VTT-videoTestVideo_video8560-shot1_3/img287.jpg,Images/MSR-VTT-videoTestVideo_video8560-shot1_3/img298.jpg,Images/MSR-VTT-videoTestVideo_video8560-shot1_3/img302.jpg,Images/MSR-VTT-videoTestVideo_video8560-shot1_3/img311.jpg,196,33,0,2022-06-16_04h16.08.481,annotation,2021.2.3,Win32,60.0024001,,
,,,,,,,,,,,,,,,,,0.47199438,0.107919744,1,0,0,image_4,0,30,30,40,1,1115,A couple of men riding a boat on a mountain.,M,0,2,MSR-VTT-videoTestVideo_video7465-shot7_0,Images/MSR-VTT-videoTestVideo_video7465-shot7_0/img0.jpg,Images/MSR-VTT-videoTestVideo_video7465-shot7_0/img1.jpg,Images/MSR-VTT-videoTestVideo_video7465-shot7_0/img2.jpg,Images/MSR-VTT-videoTestVideo_video7465-shot7_0/img3.jpg,Images/MSR-VTT-videoTestVideo_video7465-shot7_0/img7.jpg,Images/MSR-VTT-videoTestVideo_video7465-shot7_0/img11.jpg,Images/MSR-VTT-videoTestVideo_video7465-shot7_0/img16.jpg,Images/MSR-VTT-videoTestVideo_video7465-shot7_0/img21.jpg,Images/MSR-VTT-videoTestVideo_video7465-shot7_0/img26.jpg,Images/MSR-VTT-videoTestVideo_video7465-shot7_0/img30.jpg,31,33,0,2022-06-16_04h16.08.481,annotation,2021.2.3,Win32,60.0024001,,
,,,,,,,,,,,,,,,,,0.215383764,0.144392329,1,0,0,image_3,0,31,31,23,1,2043,A person is cutting a piece of fruit on a table.,M,0,0,YouCook-video0034-shot14_4,Images/YouCook-video0034-shot14_4/img355.jpg,Images/YouCook-video0034-shot14_4/img361.jpg,Images/YouCook-video0034-shot14_4/img368.jpg,Images/YouCook-video0034-shot14_4/img399.jpg,Images/YouCook-video0034-shot14_4/img403.jpg,Images/YouCook-video0034-shot14_4/img411.jpg,Images/YouCook-video0034-shot14_4/img427.jpg,Images/YouCook-video0034-shot14_4/img432.jpg,Images/YouCook-video0034-shot14_4/img436.jpg,Images/YouCook-video0034-shot14_4/img440.jpg,13,33,0,2022-06-16_04h16.08.481,annotation,2021.2.3,Win32,60.0024001,,
,,,,,,,,,,,,,,,,,0.23752772,0.167838988,1,0,0,image_3,0,32,32,38,1,202,Dog mascot has his left arm bent facing up and covering a little bit of eye,H,0,7,video-storytelling-videobirthday__amwPjAcoC8-shot15_0,Images/video-storytelling-videobirthday__amwPjAcoC8-shot15_0/img0.jpg,Images/video-storytelling-videobirthday__amwPjAcoC8-shot15_0/img3.jpg,Images/video-storytelling-videobirthday__amwPjAcoC8-shot15_0/img8.jpg,Images/video-storytelling-videobirthday__amwPjAcoC8-shot15_0/img14.jpg,Images/video-storytelling-videobirthday__amwPjAcoC8-shot15_0/img17.jpg,Images/video-storytelling-videobirthday__amwPjAcoC8-shot15_0/img22.jpg,Images/video-storytelling-videobirthday__amwPjAcoC8-shot15_0/img26.jpg,Images/video-storytelling-videobirthday__amwPjAcoC8-shot15_0/img28.jpg,Images/video-storytelling-videobirthday__amwPjAcoC8-shot15_0/img31.jpg,Images/video-storytelling-videobirthday__amwPjAcoC8-shot15_0/img36.jpg,762,33,0,2022-06-16_04h16.08.481,annotation,2021.2.3,Win32,60.0024001,,
,,,,,,,,,,,,,,,,,0.271395219,-0.110915762,1,0,0,image_8,0,33,33,10,1,662,The woman on the right is standing pretty straight up and her left arm is bent at a 90 degree angle. ,H,0,0,video-storytelling-videocamping_1OzbiB1TIWI-shot43_13,Images/video-storytelling-videocamping_1OzbiB1TIWI-shot43_13/img700.jpg,Images/video-storytelling-videocamping_1OzbiB1TIWI-shot43_13/img702.jpg,Images/video-storytelling-videocamping_1OzbiB1TIWI-shot43_13/img705.jpg,Images/video-storytelling-videocamping_1OzbiB1TIWI-shot43_13/img710.jpg,Images/video-storytelling-videocamping_1OzbiB1TIWI-shot43_13/img713.jpg,Images/video-storytelling-videocamping_1OzbiB1TIWI-shot43_13/img717.jpg,Images/video-storytelling-videocamping_1OzbiB1TIWI-shot43_13/img724.jpg,Images/video-storytelling-videocamping_1OzbiB1TIWI-shot43_13/img726.jpg,Images/video-storytelling-videocamping_1OzbiB1TIWI-shot43_13/img733.jpg,Images/video-storytelling-videocamping_1OzbiB1TIWI-shot43_13/img736.jpg,547,33,0,2022-06-16_04h16.08.481,annotation,2021.2.3,Win32,60.0024001,,
,,,,,,,,,,,,,,,,,0.277908093,0.139181944,1,0,0,image_3,0,34,34,5,1,399,The brown character can be fully seen for the first time.  It is dragging something in its hands but not much of it is on the screen yet. ,H,0,2,MSR-VTT-videoTestVideo_video8655-shot1_0,Images/MSR-VTT-videoTestVideo_video8655-shot1_0/img0.jpg,Images/MSR-VTT-videoTestVideo_video8655-shot1_0/img4.jpg,Images/MSR-VTT-videoTestVideo_video8655-shot1_0/img7.jpg,Images/MSR-VTT-videoTestVideo_video8655-shot1_0/img8.jpg,Images/MSR-VTT-videoTestVideo_video8655-shot1_0/img12.jpg,Images/MSR-VTT-videoTestVideo_video8655-shot1_0/img14.jpg,Images/MSR-VTT-videoTestVideo_video8655-shot1_0/img15.jpg,Images/MSR-VTT-videoTestVideo_video8655-shot1_0/img17.jpg,Images/MSR-VTT-videoTestVideo_video8655-shot1_0/img19.jpg,Images/MSR-VTT-videoTestVideo_video8655-shot1_0/img20.jpg,313,33,0,2022-06-16_04h16.08.481,annotation,2021.2.3,Win32,60.0024001,,
,,,,,,,,,,,,,,,,,-0.013872583,0.150905274,1,0,0,image_2,0,35,35,61,1,3,A grey elephant with golden leaves on it. ,H,,2,open-images-1745_0ed62fe71809b2f5,Checks/check4/open-images-2609_3f72daeb23764ecfimg6.jpg,Checks/check4/open-images-1928_60679e2899870e08img1.jpg,Checks/check4/open-images-1745_0ed62fe71809b2f5img2.jpg,Checks/check4/open-images-1811_9ae6351c7f7565edimg0.jpg,Checks/check4/open-images-1721_6f04da11945ea492img3.jpg,Checks/check4/open-images-1907_5f9be3e4ea5e22c7img2.jpg,Checks/check4/open-images-580_0ddffb9c25141999img1.jpg,Checks/check4/open-images-2924_0645dcbcf998fed9img3.jpg,Checks/check4/open-images-869_856ecbcb5faf76e3img8.jpg,Checks/check4/open-images-250_02039517e63a91fbimg1.jpg,,,1,2022-06-16_04h16.08.481,annotation,2021.2.3,Win32,60.0024001,,
,,,,,,,,,,,,,,,,,-0.51537052,0.124853458,1,0,0,image_0,0,36,36,44,1,1664,A row of chairs in a room filled with objects.,M,0,2,MSR-VTT-videoTestVideo_video8555-shot6_0,Images/MSR-VTT-videoTestVideo_video8555-shot6_0/img0.jpg,Images/MSR-VTT-videoTestVideo_video8555-shot6_0/img5.jpg,Images/MSR-VTT-videoTestVideo_video8555-shot6_0/img12.jpg,Images/MSR-VTT-videoTestVideo_video8555-shot6_0/img17.jpg,Images/MSR-VTT-videoTestVideo_video8555-shot6_0/img20.jpg,Images/MSR-VTT-videoTestVideo_video8555-shot6_0/img23.jpg,Images/MSR-VTT-videoTestVideo_video8555-shot6_0/img39.jpg,Images/MSR-VTT-videoTestVideo_video8555-shot6_0/img45.jpg,Images/MSR-VTT-videoTestVideo_video8555-shot6_0/img50.jpg,Images/MSR-VTT-videoTestVideo_video8555-shot6_0/img57.jpg,892,33,0,2022-06-16_04h16.08.481,annotation,2021.2.3,Win32,60.0024001,,
,,,,,,,,,,,,,,,,,0.257066626,-0.140875366,1,0,0,image_8,0,37,37,22,1,1834,A man walking down a street with a hat on his head.,M,0,8,MSR-VTT-videoTestVideo_video9489-shot2_1,Images/MSR-VTT-videoTestVideo_video9489-shot2_1/img42.jpg,Images/MSR-VTT-videoTestVideo_video9489-shot2_1/img44.jpg,Images/MSR-VTT-videoTestVideo_video9489-shot2_1/img45.jpg,Images/MSR-VTT-videoTestVideo_video9489-shot2_1/img47.jpg,Images/MSR-VTT-videoTestVideo_video9489-shot2_1/img49.jpg,Images/MSR-VTT-videoTestVideo_video9489-shot2_1/img51.jpg,Images/MSR-VTT-videoTestVideo_video9489-shot2_1/img54.jpg,Images/MSR-VTT-videoTestVideo_video9489-shot2_1/img56.jpg,Images/MSR-VTT-videoTestVideo_video9489-shot2_1/img59.jpg,Images/MSR-VTT-videoTestVideo_video9489-shot2_1/img60.jpg,611,33,0,2022-06-16_04h16.08.481,annotation,2021.2.3,Win32,60.0024001,,
,,,,,,,,,,,,,,,,,-0.480200532,-0.114823515,1,0,0,image_5,0,38,38,59,1,1,The only picture of a hawk.  It is looking to the left.  You see lots of branches and darker blue sky. ,H,,5,open-images-958_686caac9c5b322e7,Checks/check2/open-images-2603_1b5152f01f0093e7img3.jpg,Checks/check2/open-images-1836_069810916ce5d675img8.jpg,Checks/check2/open-images-974_0748fdedc4bf8b7bimg2.jpg,Checks/check2/open-images-617_01fb725fb1aa7b04img6.jpg,Checks/check2/open-images-507_047769e1f977cd97img2.jpg,Checks/check2/open-images-958_686caac9c5b322e7img5.jpg,Checks/check2/open-images-1278_21851d9bf5dc05c9img7.jpg,Checks/check2/open-images-2424_05f04546e01499f2img0.jpg,Checks/check2/open-images-1529_1442b11a10a6aeadimg3.jpg,Checks/check2/open-images-514_2c523ddedc2561d4img1.jpg,,,1,2022-06-16_04h16.08.481,annotation,2021.2.3,Win32,60.0024001,,
,,,,,,,,,,,,,,,,,-0.507555015,0.136576788,1,0,0,image_0,0,39,39,57,1,1929,A person holding a piece of onion on top of a wooden cutting board.,M,0,1,YouCook-video0034-shot13_0,Images/YouCook-video0034-shot13_0/img0.jpg,Images/YouCook-video0034-shot13_0/img5.jpg,Images/YouCook-video0034-shot13_0/img14.jpg,Images/YouCook-video0034-shot13_0/img33.jpg,Images/YouCook-video0034-shot13_0/img74.jpg,Images/YouCook-video0034-shot13_0/img84.jpg,Images/YouCook-video0034-shot13_0/img101.jpg,Images/YouCook-video0034-shot13_0/img113.jpg,Images/YouCook-video0034-shot13_0/img127.jpg,Images/YouCook-video0034-shot13_0/img130.jpg,145,33,0,2022-06-16_04h16.08.481,annotation,2021.2.3,Win32,60.0024001,,
,,,,,,,,,,,,,,,,,-0.263970253,0.139181944,1,0,0,image_1,0,40,40,62,1,4,A penguin holding a piece of paper with text on it. ,H,,1,open-images-2521_074d6af730ed17a6,Checks/check5/open-images-509_4d8bd994cb8c6eaeimg0.jpg,Checks/check5/open-images-2521_074d6af730ed17a6img1.jpg,Checks/check5/open-images-1365_a00a5fde334ae45aimg4.jpg,Checks/check5/open-images-1602_44092afdeab39e73img6.jpg,Checks/check5/open-images-1032_059f3cdfb85ee0ceimg3.jpg,Checks/check5/open-images-727_25b77fff36adba66img2.jpg,Checks/check5/open-images-2208_0fb92b9978d98575img2.jpg,Checks/check5/open-images-1305_05769e6abb16fdc8img9.jpg,Checks/check5/open-images-2676_052dbf7b4899430bimg1.jpg,Checks/check5/open-images-2569_1e81d79bb796a2dbimg7.jpg,,,1,2022-06-16_04h16.08.481,annotation,2021.2.3,Win32,60.0024001,,
,,,,,,,,,,,,,,,,,0.229712286,0.160023447,1,0,0,image_3,0,41,41,11,1,726,"The head of the bald man is visible but not his body. You cannot see the man on the left's face, just a bit of his beard. ",H,0,4,MSR-VTT-videoTestVideo_video9951-shot1_0,Images/MSR-VTT-videoTestVideo_video9951-shot1_0/img0.jpg,Images/MSR-VTT-videoTestVideo_video9951-shot1_0/img3.jpg,Images/MSR-VTT-videoTestVideo_video9951-shot1_0/img6.jpg,Images/MSR-VTT-videoTestVideo_video9951-shot1_0/img9.jpg,Images/MSR-VTT-videoTestVideo_video9951-shot1_0/img12.jpg,Images/MSR-VTT-videoTestVideo_video9951-shot1_0/img17.jpg,Images/MSR-VTT-videoTestVideo_video9951-shot1_0/img23.jpg,Images/MSR-VTT-videoTestVideo_video9951-shot1_0/img33.jpg,Images/MSR-VTT-videoTestVideo_video9951-shot1_0/img37.jpg,Images/MSR-VTT-videoTestVideo_video9951-shot1_0/img41.jpg,494,33,0,2022-06-16_04h16.08.481,annotation,2021.2.3,Win32,60.0024001,,
,,,,,,,,,,,,,,,,,0.479809885,-0.178650546,1,0,0,image_9,0,42,42,24,1,906,The soup is shadowed and a small portion of the white bowl is visible at the top.,H,0,6,MSR-VTT-videoTestVideo_video7285-shot1_0,Images/MSR-VTT-videoTestVideo_video7285-shot1_0/img0.jpg,Images/MSR-VTT-videoTestVideo_video7285-shot1_0/img15.jpg,Images/MSR-VTT-videoTestVideo_video7285-shot1_0/img50.jpg,Images/MSR-VTT-videoTestVideo_video7285-shot1_0/img163.jpg,Images/MSR-VTT-videoTestVideo_video7285-shot1_0/img190.jpg,Images/MSR-VTT-videoTestVideo_video7285-shot1_0/img474.jpg,Images/MSR-VTT-videoTestVideo_video7285-shot1_0/img533.jpg,Images/MSR-VTT-videoTestVideo_video7285-shot1_0/img540.jpg,Images/MSR-VTT-videoTestVideo_video7285-shot1_0/img549.jpg,Images/MSR-VTT-videoTestVideo_video7285-shot1_0/img560.jpg,808,33,0,2022-06-16_04h16.08.481,annotation,2021.2.3,Win32,60.0024001,,
,,,,,,,,,,,,,,,,,0.03823112,0.100104203,1,0,0,image_2,0,43,43,15,1,598,A person holds the ball ready for a serve and the right hand hand is level with the words on his jersey. ,H,0,8,MSR-VTT-videoTestVideo_video8465-shot1_4,Images/MSR-VTT-videoTestVideo_video8465-shot1_4/img312.jpg,Images/MSR-VTT-videoTestVideo_video8465-shot1_4/img317.jpg,Images/MSR-VTT-videoTestVideo_video8465-shot1_4/img324.jpg,Images/MSR-VTT-videoTestVideo_video8465-shot1_4/img332.jpg,Images/MSR-VTT-videoTestVideo_video8465-shot1_4/img336.jpg,Images/MSR-VTT-videoTestVideo_video8465-shot1_4/img342.jpg,Images/MSR-VTT-videoTestVideo_video8465-shot1_4/img345.jpg,Images/MSR-VTT-videoTestVideo_video8465-shot1_4/img348.jpg,Images/MSR-VTT-videoTestVideo_video8465-shot1_4/img351.jpg,Images/MSR-VTT-videoTestVideo_video8465-shot1_4/img354.jpg,947,33,0,2022-06-16_04h16.08.481,annotation,2021.2.3,Win32,60.0024001,,
,,,,,,,,,,,,,,,,,-0.467174606,0.128761211,1,0,0,image_0,0,44,44,49,1,1145,A man with a tie and a mustache standing in front of a mirror.,M,0,3,MSR-VTT-videoTestVideo_video8755-shot1_0,Images/MSR-VTT-videoTestVideo_video8755-shot1_0/img0.jpg,Images/MSR-VTT-videoTestVideo_video8755-shot1_0/img3.jpg,Images/MSR-VTT-videoTestVideo_video8755-shot1_0/img6.jpg,Images/MSR-VTT-videoTestVideo_video8755-shot1_0/img12.jpg,Images/MSR-VTT-videoTestVideo_video8755-shot1_0/img13.jpg,Images/MSR-VTT-videoTestVideo_video8755-shot1_0/img18.jpg,Images/MSR-VTT-videoTestVideo_video8755-shot1_0/img19.jpg,Images/MSR-VTT-videoTestVideo_video8755-shot1_0/img23.jpg,Images/MSR-VTT-videoTestVideo_video8755-shot1_0/img33.jpg,Images/MSR-VTT-videoTestVideo_video8755-shot1_0/img45.jpg,2010,33,0,2022-06-16_04h16.08.481,annotation,2021.2.3,Win32,60.0024001,,
,,,,,,,,,,,,,,,,,-0.280903967,0.118340478,1,0,0,image_1,0,45,45,27,1,1126,A man standing in front of a wall in front of a wall.,M,1,4,MSR-VTT-videoTestVideo_video7095-shot1_0,Images/MSR-VTT-videoTestVideo_video7095-shot1_0/img0.jpg,Images/MSR-VTT-videoTestVideo_video7095-shot1_0/img1.jpg,Images/MSR-VTT-videoTestVideo_video7095-shot1_0/img4.jpg,Images/MSR-VTT-videoTestVideo_video7095-shot1_0/img9.jpg,Images/MSR-VTT-videoTestVideo_video7095-shot1_0/img14.jpg,Images/MSR-VTT-videoTestVideo_video7095-shot1_0/img16.jpg,Images/MSR-VTT-videoTestVideo_video7095-shot1_0/img18.jpg,Images/MSR-VTT-videoTestVideo_video7095-shot1_0/img42.jpg,Images/MSR-VTT-videoTestVideo_video7095-shot1_0/img60.jpg,Images/MSR-VTT-videoTestVideo_video7095-shot1_0/img66.jpg,1325,33,0,2022-06-16_04h16.08.481,annotation,2021.2.3,Win32,60.0024001,,
,,,,,,,,,,,,,,,,,-0.196235469,-0.166927217,1,0,0,image_6,0,46,46,47,1,1079,A woman sitting in front of a parked car.,M,1,1,video-storytelling-videocamping_dBXYM3dQTSo-shot75_2,Images/video-storytelling-videocamping_dBXYM3dQTSo-shot75_2/img352.jpg,Images/video-storytelling-videocamping_dBXYM3dQTSo-shot75_2/img380.jpg,Images/video-storytelling-videocamping_dBXYM3dQTSo-shot75_2/img388.jpg,Images/video-storytelling-videocamping_dBXYM3dQTSo-shot75_2/img404.jpg,Images/video-storytelling-videocamping_dBXYM3dQTSo-shot75_2/img410.jpg,Images/video-storytelling-videocamping_dBXYM3dQTSo-shot75_2/img427.jpg,Images/video-storytelling-videocamping_dBXYM3dQTSo-shot75_2/img441.jpg,Images/video-storytelling-videocamping_dBXYM3dQTSo-shot75_2/img481.jpg,Images/video-storytelling-videocamping_dBXYM3dQTSo-shot75_2/img503.jpg,Images/video-storytelling-videocamping_dBXYM3dQTSo-shot75_2/img531.jpg,296,33,0,2022-06-16_04h16.08.481,annotation,2021.2.3,Win32,60.0024001,,
,,,,,,,,,,,,,,,,,0.255763994,0.14048454,1,0,0,image_3,0,47,47,30,1,1445,A woman standing next to a man who is riding a bike.,M,0,2,MSR-VTT-videoTestVideo_video8513-shot4_0,Images/MSR-VTT-videoTestVideo_video8513-shot4_0/img0.jpg,Images/MSR-VTT-videoTestVideo_video8513-shot4_0/img10.jpg,Images/MSR-VTT-videoTestVideo_video8513-shot4_0/img58.jpg,Images/MSR-VTT-videoTestVideo_video8513-shot4_0/img73.jpg,Images/MSR-VTT-videoTestVideo_video8513-shot4_0/img97.jpg,Images/MSR-VTT-videoTestVideo_video8513-shot4_0/img114.jpg,Images/MSR-VTT-videoTestVideo_video8513-shot4_0/img115.jpg,Images/MSR-VTT-videoTestVideo_video8513-shot4_0/img119.jpg,Images/MSR-VTT-videoTestVideo_video8513-shot4_0/img123.jpg,Images/MSR-VTT-videoTestVideo_video8513-shot4_0/img131.jpg,408,33,0,2022-06-16_04h16.08.481,annotation,2021.2.3,Win32,60.0024001,,
,,,,,,,,,,,,,,,,,0.255763994,0.14048454,1,0,0,image_3,0,48,48,50,1,1237,A person standing in front of a microphone.,M,0,3,MSR-VTT-videoTestVideo_video9519-shot4_1,Images/MSR-VTT-videoTestVideo_video9519-shot4_1/img33.jpg,Images/MSR-VTT-videoTestVideo_video9519-shot4_1/img38.jpg,Images/MSR-VTT-videoTestVideo_video9519-shot4_1/img40.jpg,Images/MSR-VTT-videoTestVideo_video9519-shot4_1/img42.jpg,Images/MSR-VTT-videoTestVideo_video9519-shot4_1/img43.jpg,Images/MSR-VTT-videoTestVideo_video9519-shot4_1/img46.jpg,Images/MSR-VTT-videoTestVideo_video9519-shot4_1/img51.jpg,Images/MSR-VTT-videoTestVideo_video9519-shot4_1/img53.jpg,Images/MSR-VTT-videoTestVideo_video9519-shot4_1/img56.jpg,Images/MSR-VTT-videoTestVideo_video9519-shot4_1/img58.jpg,590,33,0,2022-06-16_04h16.08.481,annotation,2021.2.3,Win32,60.0024001,,
,,,,,,,,,,,,,,,,,0.221896638,-0.131757229,1,0,0,image_8,0,49,49,25,1,335,The item she unwrapped is covering her nose and mouth.,H,0,9,video-storytelling-videobirthday_fwpYnUDbusw-shot8_3,Images/video-storytelling-videobirthday_fwpYnUDbusw-shot8_3/img170.jpg,Images/video-storytelling-videobirthday_fwpYnUDbusw-shot8_3/img175.jpg,Images/video-storytelling-videobirthday_fwpYnUDbusw-shot8_3/img180.jpg,Images/video-storytelling-videobirthday_fwpYnUDbusw-shot8_3/img188.jpg,Images/video-storytelling-videobirthday_fwpYnUDbusw-shot8_3/img201.jpg,Images/video-storytelling-videobirthday_fwpYnUDbusw-shot8_3/img206.jpg,Images/video-storytelling-videobirthday_fwpYnUDbusw-shot8_3/img217.jpg,Images/video-storytelling-videobirthday_fwpYnUDbusw-shot8_3/img229.jpg,Images/video-storytelling-videobirthday_fwpYnUDbusw-shot8_3/img234.jpg,Images/video-storytelling-videobirthday_fwpYnUDbusw-shot8_3/img239.jpg,1544,33,0,2022-06-16_04h16.08.481,annotation,2021.2.3,Win32,60.0024001,,
,,,,,,,,,,,,,,,,,0.221896638,-0.131757229,1,0,0,image_8,0,50,50,14,1,1211,A woman is bending over to brush her hair.,M,0,0,MSR-VTT-videoTestVideo_video7405-shot6_0,Images/MSR-VTT-videoTestVideo_video7405-shot6_0/img0.jpg,Images/MSR-VTT-videoTestVideo_video7405-shot6_0/img6.jpg,Images/MSR-VTT-videoTestVideo_video7405-shot6_0/img33.jpg,Images/MSR-VTT-videoTestVideo_video7405-shot6_0/img41.jpg,Images/MSR-VTT-videoTestVideo_video7405-shot6_0/img48.jpg,Images/MSR-VTT-videoTestVideo_video7405-shot6_0/img57.jpg,Images/MSR-VTT-videoTestVideo_video7405-shot6_0/img67.jpg,Images/MSR-VTT-videoTestVideo_video7405-shot6_0/img104.jpg,Images/MSR-VTT-videoTestVideo_video7405-shot6_0/img123.jpg,Images/MSR-VTT-videoTestVideo_video7405-shot6_0/img132.jpg,539,33,0,2022-06-16_04h16.08.481,annotation,2021.2.3,Win32,60.0024001,,
,,,,,,,,,,,,,,,,,0.555360246,-0.173440162,1,0,0,image_9,0,51,51,54,1,1757,A group of people sitting together in a room.,M,0,8,MSR-VTT-videoTestVideo_video8166-shot1_1,Images/MSR-VTT-videoTestVideo_video8166-shot1_1/img10.jpg,Images/MSR-VTT-videoTestVideo_video8166-shot1_1/img11.jpg,Images/MSR-VTT-videoTestVideo_video8166-shot1_1/img14.jpg,Images/MSR-VTT-videoTestVideo_video8166-shot1_1/img15.jpg,Images/MSR-VTT-videoTestVideo_video8166-shot1_1/img16.jpg,Images/MSR-VTT-videoTestVideo_video8166-shot1_1/img17.jpg,Images/MSR-VTT-videoTestVideo_video8166-shot1_1/img20.jpg,Images/MSR-VTT-videoTestVideo_video8166-shot1_1/img22.jpg,Images/MSR-VTT-videoTestVideo_video8166-shot1_1/img23.jpg,Images/MSR-VTT-videoTestVideo_video8166-shot1_1/img24.jpg,1372,33,0,2022-06-16_04h16.08.481,annotation,2021.2.3,Win32,60.0024001,,
,,,,,,,,,,,,,,,,,0.214081061,0.171746776,1,0,0,image_3,0,52,52,36,1,128,Surfer can be seen just a little bit above the wave with some white splashing water to the right,H,0,1,MSR-VTT-videoTestVideo_video9088-shot1_1,Images/MSR-VTT-videoTestVideo_video9088-shot1_1/img209.jpg,Images/MSR-VTT-videoTestVideo_video9088-shot1_1/img219.jpg,Images/MSR-VTT-videoTestVideo_video9088-shot1_1/img278.jpg,Images/MSR-VTT-videoTestVideo_video9088-shot1_1/img320.jpg,Images/MSR-VTT-videoTestVideo_video9088-shot1_1/img324.jpg,Images/MSR-VTT-videoTestVideo_video9088-shot1_1/img327.jpg,Images/MSR-VTT-videoTestVideo_video9088-shot1_1/img329.jpg,Images/MSR-VTT-videoTestVideo_video9088-shot1_1/img349.jpg,Images/MSR-VTT-videoTestVideo_video9088-shot1_1/img357.jpg,Images/MSR-VTT-videoTestVideo_video9088-shot1_1/img395.jpg,776,33,0,2022-06-16_04h16.08.481,annotation,2021.2.3,Win32,60.0024001,,
,,,,,,,,,,,,,,,,,0.280513285,-0.118731339,1,0,0,image_8,0,53,53,1,1,334,"Two men, you can see both of their chins and mouths and a small part of the closest man's nose, but not their eyes.",H,0,4,MSR-VTT-videoTestVideo_video9235-shot0_0,Images/MSR-VTT-videoTestVideo_video9235-shot0_0/img0.jpg,Images/MSR-VTT-videoTestVideo_video9235-shot0_0/img4.jpg,Images/MSR-VTT-videoTestVideo_video9235-shot0_0/img7.jpg,Images/MSR-VTT-videoTestVideo_video9235-shot0_0/img9.jpg,Images/MSR-VTT-videoTestVideo_video9235-shot0_0/img11.jpg,Images/MSR-VTT-videoTestVideo_video9235-shot0_0/img15.jpg,Images/MSR-VTT-videoTestVideo_video9235-shot0_0/img19.jpg,Images/MSR-VTT-videoTestVideo_video9235-shot0_0/img22.jpg,Images/MSR-VTT-videoTestVideo_video9235-shot0_0/img29.jpg,Images/MSR-VTT-videoTestVideo_video9235-shot0_0/img40.jpg,1904,33,0,2022-06-16_04h16.08.481,annotation,2021.2.3,Win32,60.0024001,,
,,,,,,,,,,,,,,,,,-0.232708089,0.14048454,1,0,0,image_1,0,54,54,43,1,242,The man on the left is cut right down the middle of his face.  You can see one eye clearly and one nostril on his nose. ,H,0,6,MSR-VTT-videoTestVideo_video9327-shot1_0,Images/MSR-VTT-videoTestVideo_video9327-shot1_0/img0.jpg,Images/MSR-VTT-videoTestVideo_video9327-shot1_0/img3.jpg,Images/MSR-VTT-videoTestVideo_video9327-shot1_0/img26.jpg,Images/MSR-VTT-videoTestVideo_video9327-shot1_0/img31.jpg,Images/MSR-VTT-videoTestVideo_video9327-shot1_0/img39.jpg,Images/MSR-VTT-videoTestVideo_video9327-shot1_0/img43.jpg,Images/MSR-VTT-videoTestVideo_video9327-shot1_0/img46.jpg,Images/MSR-VTT-videoTestVideo_video9327-shot1_0/img48.jpg,Images/MSR-VTT-videoTestVideo_video9327-shot1_0/img53.jpg,Images/MSR-VTT-videoTestVideo_video9327-shot1_0/img61.jpg,1087,33,0,2022-06-16_04h16.08.481,annotation,2021.2.3,Win32,60.0024001,,
,,,,,,,,,,,,,,,,,0.263579571,0.127458615,1,0,0,image_3,0,55,55,8,1,798,His arms are bent at the elbows and reaching toward the left side of the picture. His face looks scared or like he's crying.,H,0,1,MSR-VTT-videoTestVideo_video7625-shot6_2,Images/MSR-VTT-videoTestVideo_video7625-shot6_2/img36.jpg,Images/MSR-VTT-videoTestVideo_video7625-shot6_2/img38.jpg,Images/MSR-VTT-videoTestVideo_video7625-shot6_2/img41.jpg,Images/MSR-VTT-videoTestVideo_video7625-shot6_2/img43.jpg,Images/MSR-VTT-videoTestVideo_video7625-shot6_2/img45.jpg,Images/MSR-VTT-videoTestVideo_video7625-shot6_2/img47.jpg,Images/MSR-VTT-videoTestVideo_video7625-shot6_2/img48.jpg,Images/MSR-VTT-videoTestVideo_video7625-shot6_2/img49.jpg,Images/MSR-VTT-videoTestVideo_video7625-shot6_2/img50.jpg,Images/MSR-VTT-videoTestVideo_video7625-shot6_2/img53.jpg,1639,33,0,2022-06-16_04h16.08.481,annotation,2021.2.3,Win32,60.0024001,,
,,,,,,,,,,,,,,,,,0.031718175,0.165233795,1,0,0,image_2,0,56,56,58,1,0,Pair of black gloves,H,,2,open-images-510_3a241cb30d6e5319,Checks/check1/open-images-225_1442c0d0ef23d58bimg3.jpg,Checks/check1/open-images-2759_3a42708fe77398b7img8.jpg,Checks/check1/open-images-510_3a241cb30d6e5319img2.jpg,Checks/check1/open-images-2209_02c98146fb93ff17img1.jpg,Checks/check1/open-images-1553_0f128317e56a9d2fimg9.jpg,Checks/check1/open-images-2666_044d7c6d11e6b493img8.jpg,Checks/check1/open-images-2880_159294646083f545img4.jpg,Checks/check1/open-images-609_2dc0baa993a2bd25img5.jpg,Checks/check1/open-images-1854_2b15616b4f1080e7img2.jpg,Checks/check1/open-images-1435_1b0ce31951048765img8.jpg,,,1,2022-06-16_04h16.08.481,annotation,2021.2.3,Win32,60.0024001,,
,,,,,,,,,,,,,,,,,0.250553753,-0.07574581,1,0,0,image_8,0,57,57,28,1,1458,Two men standing next to each other on a beach.,M,1,7,MSR-VTT-videoTestVideo_video7844-shot4_0,Images/MSR-VTT-videoTestVideo_video7844-shot4_0/img0.jpg,Images/MSR-VTT-videoTestVideo_video7844-shot4_0/img6.jpg,Images/MSR-VTT-videoTestVideo_video7844-shot4_0/img13.jpg,Images/MSR-VTT-videoTestVideo_video7844-shot4_0/img16.jpg,Images/MSR-VTT-videoTestVideo_video7844-shot4_0/img21.jpg,Images/MSR-VTT-videoTestVideo_video7844-shot4_0/img23.jpg,Images/MSR-VTT-videoTestVideo_video7844-shot4_0/img26.jpg,Images/MSR-VTT-videoTestVideo_video7844-shot4_0/img30.jpg,Images/MSR-VTT-videoTestVideo_video7844-shot4_0/img33.jpg,Images/MSR-VTT-videoTestVideo_video7844-shot4_0/img38.jpg,2031,33,0,2022-06-16_04h16.08.481,annotation,2021.2.3,Win32,60.0024001,,
,,,,,,,,,,,,,,,,,0.25967189,0.149602642,1,0,0,image_3,0,58,58,2,1,1733,A group of people walking down a runway.,M,0,2,MSR-VTT-videoTestVideo_video9289-shot1_0,Images/MSR-VTT-videoTestVideo_video9289-shot1_0/img0.jpg,Images/MSR-VTT-videoTestVideo_video9289-shot1_0/img9.jpg,Images/MSR-VTT-videoTestVideo_video9289-shot1_0/img15.jpg,Images/MSR-VTT-videoTestVideo_video9289-shot1_0/img17.jpg,Images/MSR-VTT-videoTestVideo_video9289-shot1_0/img30.jpg,Images/MSR-VTT-videoTestVideo_video9289-shot1_0/img37.jpg,Images/MSR-VTT-videoTestVideo_video9289-shot1_0/img43.jpg,Images/MSR-VTT-videoTestVideo_video9289-shot1_0/img54.jpg,Images/MSR-VTT-videoTestVideo_video9289-shot1_0/img62.jpg,Images/MSR-VTT-videoTestVideo_video9289-shot1_0/img69.jpg,1630,33,0,2022-06-16_04h16.08.481,annotation,2021.2.3,Win32,60.0024001,,
,,,,,,,,,,,,,,,,,0.518887698,-0.198189453,1,0,0,image_9,0,59,59,53,1,1040,A person holding a crab leg with only their left hand and no other visible hands.,H,1,0,YouCook-video0023-shot1_1,Images/YouCook-video0023-shot1_1/img227.jpg,Images/YouCook-video0023-shot1_1/img254.jpg,Images/YouCook-video0023-shot1_1/img320.jpg,Images/YouCook-video0023-shot1_1/img322.jpg,Images/YouCook-video0023-shot1_1/img324.jpg,Images/YouCook-video0023-shot1_1/img326.jpg,Images/YouCook-video0023-shot1_1/img329.jpg,Images/YouCook-video0023-shot1_1/img332.jpg,Images/YouCook-video0023-shot1_1/img336.jpg,Images/YouCook-video0023-shot1_1/img341.jpg,595,33,0,2022-06-16_04h16.08.481,annotation,2021.2.3,Win32,60.0024001,,
,,,,,,,,,,,,,,,,,0.516282434,-0.196886821,1,0,0,image_9,0,60,60,33,1,745,The tentacle on the octopus in the foreground is very large and stretches from the bottom of the image to nearly the right side. ,H,0,8,MSR-VTT-videoTestVideo_video7473-shot11_0,Images/MSR-VTT-videoTestVideo_video7473-shot11_0/img0.jpg,Images/MSR-VTT-videoTestVideo_video7473-shot11_0/img1.jpg,Images/MSR-VTT-videoTestVideo_video7473-shot11_0/img3.jpg,Images/MSR-VTT-videoTestVideo_video7473-shot11_0/img5.jpg,Images/MSR-VTT-videoTestVideo_video7473-shot11_0/img11.jpg,Images/MSR-VTT-videoTestVideo_video7473-shot11_0/img15.jpg,Images/MSR-VTT-videoTestVideo_video7473-shot11_0/img20.jpg,Images/MSR-VTT-videoTestVideo_video7473-shot11_0/img25.jpg,Images/MSR-VTT-videoTestVideo_video7473-shot11_0/img27.jpg,Images/MSR-VTT-videoTestVideo_video7473-shot11_0/img37.jpg,785,33,0,2022-06-16_04h16.08.481,annotation,2021.2.3,Win32,60.0024001,,
,,,,,,,,,,,,,,,,,0.22580439,0.126155983,1,0,0,image_3,0,61,61,6,1,1325,A group of children sitting at a table eating pizza.,M,0,1,video-storytelling-videobirthday__amwPjAcoC8-shot18_0,Images/video-storytelling-videobirthday__amwPjAcoC8-shot18_0/img0.jpg,Images/video-storytelling-videobirthday__amwPjAcoC8-shot18_0/img5.jpg,Images/video-storytelling-videobirthday__amwPjAcoC8-shot18_0/img11.jpg,Images/video-storytelling-videobirthday__amwPjAcoC8-shot18_0/img18.jpg,Images/video-storytelling-videobirthday__amwPjAcoC8-shot18_0/img29.jpg,Images/video-storytelling-videobirthday__amwPjAcoC8-shot18_0/img38.jpg,Images/video-storytelling-videobirthday__amwPjAcoC8-shot18_0/img47.jpg,Images/video-storytelling-videobirthday__amwPjAcoC8-shot18_0/img55.jpg,Images/video-storytelling-videobirthday__amwPjAcoC8-shot18_0/img61.jpg,Images/video-storytelling-videobirthday__amwPjAcoC8-shot18_0/img72.jpg,981,33,0,2022-06-16_04h16.08.481,annotation,2021.2.3,Win32,60.0024001,,
,,,,,,,,,,,,,,,,,0.228409583,0.169141584,1,0,0,image_3,0,62,62,48,1,492,The female dancer in the black bikini in the middle has her left knee touch the knee of the guitarist.,H,0,2,MSR-VTT-videoTestVideo_video7960-shot0_2,Images/MSR-VTT-videoTestVideo_video7960-shot0_2/img80.jpg,Images/MSR-VTT-videoTestVideo_video7960-shot0_2/img81.jpg,Images/MSR-VTT-videoTestVideo_video7960-shot0_2/img83.jpg,Images/MSR-VTT-videoTestVideo_video7960-shot0_2/img86.jpg,Images/MSR-VTT-videoTestVideo_video7960-shot0_2/img91.jpg,Images/MSR-VTT-videoTestVideo_video7960-shot0_2/img92.jpg,Images/MSR-VTT-videoTestVideo_video7960-shot0_2/img94.jpg,Images/MSR-VTT-videoTestVideo_video7960-shot0_2/img96.jpg,Images/MSR-VTT-videoTestVideo_video7960-shot0_2/img97.jpg,Images/MSR-VTT-videoTestVideo_video7960-shot0_2/img98.jpg,869,33,0,2022-06-16_04h16.08.481,annotation,2021.2.3,Win32,60.0024001,,
,,,,,,,,,,,,,,,,,,,,,,,,,,,,,,,,,,,,,,,,,,,,,,,2022-06-16_04h16.08.481,annotation,2021.2.3,Win32,60.0024001,space,30.819
