mturk,key_resp_2.keys,key_resp_2.rt,key_resp_3.keys,key_resp_3.rt,mouse_2.x,mouse_2.y,mouse_2.leftButton,mouse_2.midButton,mouse_2.rightButton,mouse_2.clicked_name,key_resp_5.keys,key_resp_5.rt,key_resp.keys,key_resp.rt,key_resp_6.keys,key_resp_6.rt,mouse.x,mouse.y,mouse.leftButton,mouse.midButton,mouse.rightButton,mouse.clicked_name,trials.thisRepN,trials.thisTrialN,trials.thisN,trials.thisIndex,trials.ran,N,caption,class_caption,model_guessed,target_idx,image_set,img1,img2,img3,img4,img5,img6,img7,img8,img9,img10,Q_id,block,is_check,date,expName,psychopyVersion,OS,frameRate,key_resp_7.keys,key_resp_7.rt
1178236,space,10.143,space,9.4508,0.216203732,0.10370369,1,0,0,ex4,space,9.3848,space,12.2803,space,1.3989,0.244444444,0.137962935,1,0,0,image_3,0,0,0,56,1,978,A picture of a man sitting in front of some food with his head bent to the left.  The woman has just completely disappeared from the shot. ,H,0,3,MSR-VTT-videoTestVideo_video9537-shot0_0,Images/MSR-VTT-videoTestVideo_video9537-shot0_0/img0.jpg,Images/MSR-VTT-videoTestVideo_video9537-shot0_0/img9.jpg,Images/MSR-VTT-videoTestVideo_video9537-shot0_0/img10.jpg,Images/MSR-VTT-videoTestVideo_video9537-shot0_0/img13.jpg,Images/MSR-VTT-videoTestVideo_video9537-shot0_0/img14.jpg,Images/MSR-VTT-videoTestVideo_video9537-shot0_0/img15.jpg,Images/MSR-VTT-videoTestVideo_video9537-shot0_0/img18.jpg,Images/MSR-VTT-videoTestVideo_video9537-shot0_0/img20.jpg,Images/MSR-VTT-videoTestVideo_video9537-shot0_0/img21.jpg,Images/MSR-VTT-videoTestVideo_video9537-shot0_0/img43.jpg,801,7,0,2022-06-15_08h04.55.275,annotation,2021.2.3,Win32,60.0060006,,
,,,,,,,,,,,,,,,,,-0.007870314,0.155555556,1,0,0,image_2,0,1,1,57,1,1996,A group of people standing in a crowded room.,M,1,3,MSR-VTT-videoTestVideo_video9363-shot2_1,Images/MSR-VTT-videoTestVideo_video9363-shot2_1/img27.jpg,Images/MSR-VTT-videoTestVideo_video9363-shot2_1/img28.jpg,Images/MSR-VTT-videoTestVideo_video9363-shot2_1/img31.jpg,Images/MSR-VTT-videoTestVideo_video9363-shot2_1/img33.jpg,Images/MSR-VTT-videoTestVideo_video9363-shot2_1/img37.jpg,Images/MSR-VTT-videoTestVideo_video9363-shot2_1/img42.jpg,Images/MSR-VTT-videoTestVideo_video9363-shot2_1/img44.jpg,Images/MSR-VTT-videoTestVideo_video9363-shot2_1/img46.jpg,Images/MSR-VTT-videoTestVideo_video9363-shot2_1/img55.jpg,Images/MSR-VTT-videoTestVideo_video9363-shot2_1/img61.jpg,200,7,0,2022-06-15_08h04.55.275,annotation,2021.2.3,Win32,60.0060006,,
,,,,,,,,,,,,,,,,,-0.493981467,-0.122222222,1,0,0,image_5,0,2,2,59,1,1,The only picture of a hawk.  It is looking to the left.  You see lots of branches and darker blue sky. ,H,,5,open-images-958_686caac9c5b322e7,Checks/check2/open-images-2603_1b5152f01f0093e7img3.jpg,Checks/check2/open-images-1836_069810916ce5d675img8.jpg,Checks/check2/open-images-974_0748fdedc4bf8b7bimg2.jpg,Checks/check2/open-images-617_01fb725fb1aa7b04img6.jpg,Checks/check2/open-images-507_047769e1f977cd97img2.jpg,Checks/check2/open-images-958_686caac9c5b322e7img5.jpg,Checks/check2/open-images-1278_21851d9bf5dc05c9img7.jpg,Checks/check2/open-images-2424_05f04546e01499f2img0.jpg,Checks/check2/open-images-1529_1442b11a10a6aeadimg3.jpg,Checks/check2/open-images-514_2c523ddedc2561d4img1.jpg,,,1,2022-06-15_08h04.55.275,annotation,2021.2.3,Win32,60.0060006,,
,,,,,,,,,,,,,,,,,-0.230555556,-0.133333333,1,0,0,image_6,0,3,3,18,1,1089,A group of people playing a game of rugby.,M,0,4,MSR-VTT-videoTestVideo_video9823-shot3_1,Images/MSR-VTT-videoTestVideo_video9823-shot3_1/img17.jpg,Images/MSR-VTT-videoTestVideo_video9823-shot3_1/img18.jpg,Images/MSR-VTT-videoTestVideo_video9823-shot3_1/img19.jpg,Images/MSR-VTT-videoTestVideo_video9823-shot3_1/img20.jpg,Images/MSR-VTT-videoTestVideo_video9823-shot3_1/img21.jpg,Images/MSR-VTT-videoTestVideo_video9823-shot3_1/img24.jpg,Images/MSR-VTT-videoTestVideo_video9823-shot3_1/img27.jpg,Images/MSR-VTT-videoTestVideo_video9823-shot3_1/img28.jpg,Images/MSR-VTT-videoTestVideo_video9823-shot3_1/img30.jpg,Images/MSR-VTT-videoTestVideo_video9823-shot3_1/img31.jpg,269,7,0,2022-06-15_08h04.55.275,annotation,2021.2.3,Win32,60.0060006,,
,,,,,,,,,,,,,,,,,-0.543518511,0.101388889,1,0,0,image_0,0,4,4,23,1,1395,a close up of a white dog on a white screen.,M,0,1,MSR-VTT-videoTestVideo_video8197-shot1_0,Images/MSR-VTT-videoTestVideo_video8197-shot1_0/img0.jpg,Images/MSR-VTT-videoTestVideo_video8197-shot1_0/img4.jpg,Images/MSR-VTT-videoTestVideo_video8197-shot1_0/img9.jpg,Images/MSR-VTT-videoTestVideo_video8197-shot1_0/img12.jpg,Images/MSR-VTT-videoTestVideo_video8197-shot1_0/img14.jpg,Images/MSR-VTT-videoTestVideo_video8197-shot1_0/img29.jpg,Images/MSR-VTT-videoTestVideo_video8197-shot1_0/img71.jpg,Images/MSR-VTT-videoTestVideo_video8197-shot1_0/img77.jpg,Images/MSR-VTT-videoTestVideo_video8197-shot1_0/img96.jpg,Images/MSR-VTT-videoTestVideo_video8197-shot1_0/img168.jpg,1939,7,0,2022-06-15_08h04.55.275,annotation,2021.2.3,Win32,60.0060006,,
,,,,,,,,,,,,,,,,,-0.489351824,0.109259245,1,0,0,image_0,0,5,5,34,1,1794,A man standing next to a fence with a dog.,M,0,2,MSR-VTT-videoTestVideo_video9007-shot1_0,Images/MSR-VTT-videoTestVideo_video9007-shot1_0/img0.jpg,Images/MSR-VTT-videoTestVideo_video9007-shot1_0/img2.jpg,Images/MSR-VTT-videoTestVideo_video9007-shot1_0/img3.jpg,Images/MSR-VTT-videoTestVideo_video9007-shot1_0/img4.jpg,Images/MSR-VTT-videoTestVideo_video9007-shot1_0/img5.jpg,Images/MSR-VTT-videoTestVideo_video9007-shot1_0/img8.jpg,Images/MSR-VTT-videoTestVideo_video9007-shot1_0/img10.jpg,Images/MSR-VTT-videoTestVideo_video9007-shot1_0/img12.jpg,Images/MSR-VTT-videoTestVideo_video9007-shot1_0/img15.jpg,Images/MSR-VTT-videoTestVideo_video9007-shot1_0/img17.jpg,1050,7,0,2022-06-15_08h04.55.275,annotation,2021.2.3,Win32,60.0060006,,
,,,,,,,,,,,,,,,,,-0.225925912,0.122222222,1,0,0,image_1,0,6,6,0,1,2080,A person standing next to a television in a room.,M,0,7,MSR-VTT-videoTestVideo_video8337-shot1_0,Images/MSR-VTT-videoTestVideo_video8337-shot1_0/img0.jpg,Images/MSR-VTT-videoTestVideo_video8337-shot1_0/img9.jpg,Images/MSR-VTT-videoTestVideo_video8337-shot1_0/img10.jpg,Images/MSR-VTT-videoTestVideo_video8337-shot1_0/img19.jpg,Images/MSR-VTT-videoTestVideo_video8337-shot1_0/img34.jpg,Images/MSR-VTT-videoTestVideo_video8337-shot1_0/img44.jpg,Images/MSR-VTT-videoTestVideo_video8337-shot1_0/img63.jpg,Images/MSR-VTT-videoTestVideo_video8337-shot1_0/img66.jpg,Images/MSR-VTT-videoTestVideo_video8337-shot1_0/img67.jpg,Images/MSR-VTT-videoTestVideo_video8337-shot1_0/img74.jpg,726,7,0,2022-06-15_08h04.55.275,annotation,2021.2.3,Win32,60.0060006,,
,,,,,,,,,,,,,,,,,0.532407464,-0.206018533,1,0,0,image_9,0,7,7,2,1,1176,A man standing next to a woman in a suit.,M,0,8,video-storytelling-videowedding_Bp8t824h5NE-shot62_7,Images/video-storytelling-videowedding_Bp8t824h5NE-shot62_7/img1128.jpg,Images/video-storytelling-videowedding_Bp8t824h5NE-shot62_7/img1139.jpg,Images/video-storytelling-videowedding_Bp8t824h5NE-shot62_7/img1159.jpg,Images/video-storytelling-videowedding_Bp8t824h5NE-shot62_7/img1170.jpg,Images/video-storytelling-videowedding_Bp8t824h5NE-shot62_7/img1173.jpg,Images/video-storytelling-videowedding_Bp8t824h5NE-shot62_7/img1176.jpg,Images/video-storytelling-videowedding_Bp8t824h5NE-shot62_7/img1180.jpg,Images/video-storytelling-videowedding_Bp8t824h5NE-shot62_7/img1183.jpg,Images/video-storytelling-videowedding_Bp8t824h5NE-shot62_7/img1187.jpg,Images/video-storytelling-videowedding_Bp8t824h5NE-shot62_7/img1191.jpg,1497,7,0,2022-06-15_08h04.55.275,annotation,2021.2.3,Win32,60.0060006,,
,,,,,,,,,,,,,,,,,0.025,-0.207407422,1,0,0,image_7,0,8,8,1,1,557,The powder at the bottom is clear to see with reflection in pot on back panel with horizontal ridges,H,0,8,MSR-VTT-videoTestVideo_video7911-shot1_0,Images/MSR-VTT-videoTestVideo_video7911-shot1_0/img0.jpg,Images/MSR-VTT-videoTestVideo_video7911-shot1_0/img6.jpg,Images/MSR-VTT-videoTestVideo_video7911-shot1_0/img11.jpg,Images/MSR-VTT-videoTestVideo_video7911-shot1_0/img13.jpg,Images/MSR-VTT-videoTestVideo_video7911-shot1_0/img14.jpg,Images/MSR-VTT-videoTestVideo_video7911-shot1_0/img15.jpg,Images/MSR-VTT-videoTestVideo_video7911-shot1_0/img21.jpg,Images/MSR-VTT-videoTestVideo_video7911-shot1_0/img42.jpg,Images/MSR-VTT-videoTestVideo_video7911-shot1_0/img121.jpg,Images/MSR-VTT-videoTestVideo_video7911-shot1_0/img124.jpg,105,7,0,2022-06-15_08h04.55.275,annotation,2021.2.3,Win32,60.0060006,,
,,,,,,,,,,,,,,,,,-0.499074046,0.116666667,1,0,0,image_0,0,9,9,26,1,69,A hand takes up the majority of the foreground of the picture,H,1,0,MSR-VTT-videoTestVideo_video7465-shot7_0,Images/MSR-VTT-videoTestVideo_video7465-shot7_0/img0.jpg,Images/MSR-VTT-videoTestVideo_video7465-shot7_0/img1.jpg,Images/MSR-VTT-videoTestVideo_video7465-shot7_0/img2.jpg,Images/MSR-VTT-videoTestVideo_video7465-shot7_0/img3.jpg,Images/MSR-VTT-videoTestVideo_video7465-shot7_0/img7.jpg,Images/MSR-VTT-videoTestVideo_video7465-shot7_0/img11.jpg,Images/MSR-VTT-videoTestVideo_video7465-shot7_0/img16.jpg,Images/MSR-VTT-videoTestVideo_video7465-shot7_0/img21.jpg,Images/MSR-VTT-videoTestVideo_video7465-shot7_0/img26.jpg,Images/MSR-VTT-videoTestVideo_video7465-shot7_0/img30.jpg,954,7,0,2022-06-15_08h04.55.275,annotation,2021.2.3,Win32,60.0060006,,
,,,,,,,,,,,,,,,,,0.055555556,0.093055556,1,0,0,image_2,0,10,10,9,1,1573,A painting of a man holding an umbrella in a field.,M,0,3,MSR-VTT-videoTestVideo_video7412-shot1_0,Images/MSR-VTT-videoTestVideo_video7412-shot1_0/img0.jpg,Images/MSR-VTT-videoTestVideo_video7412-shot1_0/img8.jpg,Images/MSR-VTT-videoTestVideo_video7412-shot1_0/img12.jpg,Images/MSR-VTT-videoTestVideo_video7412-shot1_0/img16.jpg,Images/MSR-VTT-videoTestVideo_video7412-shot1_0/img18.jpg,Images/MSR-VTT-videoTestVideo_video7412-shot1_0/img20.jpg,Images/MSR-VTT-videoTestVideo_video7412-shot1_0/img66.jpg,Images/MSR-VTT-videoTestVideo_video7412-shot1_0/img70.jpg,Images/MSR-VTT-videoTestVideo_video7412-shot1_0/img72.jpg,Images/MSR-VTT-videoTestVideo_video7412-shot1_0/img80.jpg,220,7,0,2022-06-15_08h04.55.275,annotation,2021.2.3,Win32,60.0060006,,
,,,,,,,,,,,,,,,,,-0.226388889,-0.177314843,1,0,0,image_6,0,11,11,19,1,1439,A young boy is holding a video game controller.,M,0,1,video-storytelling-videochristmas_5RR_sRzKODA-shot23_8,Images/video-storytelling-videochristmas_5RR_sRzKODA-shot23_8/img330.jpg,Images/video-storytelling-videochristmas_5RR_sRzKODA-shot23_8/img331.jpg,Images/video-storytelling-videochristmas_5RR_sRzKODA-shot23_8/img334.jpg,Images/video-storytelling-videochristmas_5RR_sRzKODA-shot23_8/img338.jpg,Images/video-storytelling-videochristmas_5RR_sRzKODA-shot23_8/img342.jpg,Images/video-storytelling-videochristmas_5RR_sRzKODA-shot23_8/img347.jpg,Images/video-storytelling-videochristmas_5RR_sRzKODA-shot23_8/img354.jpg,Images/video-storytelling-videochristmas_5RR_sRzKODA-shot23_8/img360.jpg,Images/video-storytelling-videochristmas_5RR_sRzKODA-shot23_8/img362.jpg,Images/video-storytelling-videochristmas_5RR_sRzKODA-shot23_8/img370.jpg,905,7,0,2022-06-15_08h04.55.275,annotation,2021.2.3,Win32,60.0060006,,
,,,,,,,,,,,,,,,,,0.021759288,-0.148611111,1,0,0,image_7,0,12,12,47,1,1884,A person holding a slice of green vegetables in their hands.,M,0,5,YouCook-video0035-shot7_0,Images/YouCook-video0035-shot7_0/img0.jpg,Images/YouCook-video0035-shot7_0/img5.jpg,Images/YouCook-video0035-shot7_0/img6.jpg,Images/YouCook-video0035-shot7_0/img15.jpg,Images/YouCook-video0035-shot7_0/img24.jpg,Images/YouCook-video0035-shot7_0/img32.jpg,Images/YouCook-video0035-shot7_0/img43.jpg,Images/YouCook-video0035-shot7_0/img52.jpg,Images/YouCook-video0035-shot7_0/img59.jpg,Images/YouCook-video0035-shot7_0/img66.jpg,276,7,0,2022-06-15_08h04.55.275,annotation,2021.2.3,Win32,60.0060006,,
,,,,,,,,,,,,,,,,,-0.000925869,-0.189351866,1,0,0,image_7,0,13,13,44,1,1882,A group of people sitting at a table with a cell phone.,M,1,2,video-storytelling-videowedding_46xhFCXBMJs-shot34_2,Images/video-storytelling-videowedding_46xhFCXBMJs-shot34_2/img87.jpg,Images/video-storytelling-videowedding_46xhFCXBMJs-shot34_2/img90.jpg,Images/video-storytelling-videowedding_46xhFCXBMJs-shot34_2/img94.jpg,Images/video-storytelling-videowedding_46xhFCXBMJs-shot34_2/img100.jpg,Images/video-storytelling-videowedding_46xhFCXBMJs-shot34_2/img104.jpg,Images/video-storytelling-videowedding_46xhFCXBMJs-shot34_2/img113.jpg,Images/video-storytelling-videowedding_46xhFCXBMJs-shot34_2/img129.jpg,Images/video-storytelling-videowedding_46xhFCXBMJs-shot34_2/img139.jpg,Images/video-storytelling-videowedding_46xhFCXBMJs-shot34_2/img159.jpg,Images/video-storytelling-videowedding_46xhFCXBMJs-shot34_2/img173.jpg,1389,7,0,2022-06-15_08h04.55.275,annotation,2021.2.3,Win32,60.0060006,,
,,,,,,,,,,,,,,,,,-0.010648092,-0.1875,1,0,0,image_7,0,14,14,46,1,575,"the box is perfectly straight up and down, not leaning to either side",H,0,7,YouCook-video0013-shot0_0,Images/YouCook-video0013-shot0_0/img0.jpg,Images/YouCook-video0013-shot0_0/img5.jpg,Images/YouCook-video0013-shot0_0/img12.jpg,Images/YouCook-video0013-shot0_0/img22.jpg,Images/YouCook-video0013-shot0_0/img28.jpg,Images/YouCook-video0013-shot0_0/img33.jpg,Images/YouCook-video0013-shot0_0/img40.jpg,Images/YouCook-video0013-shot0_0/img44.jpg,Images/YouCook-video0013-shot0_0/img49.jpg,Images/YouCook-video0013-shot0_0/img52.jpg,413,7,0,2022-06-15_08h04.55.275,annotation,2021.2.3,Win32,60.0060006,,
,,,,,,,,,,,,,,,,,0.531018575,0.118055556,1,0,0,image_4,0,15,15,52,1,794,There is an equal amount of yellow and white between both hands,H,0,5,MSR-VTT-videoTestVideo_video7020-shot1_1,Images/MSR-VTT-videoTestVideo_video7020-shot1_1/img95.jpg,Images/MSR-VTT-videoTestVideo_video7020-shot1_1/img143.jpg,Images/MSR-VTT-videoTestVideo_video7020-shot1_1/img178.jpg,Images/MSR-VTT-videoTestVideo_video7020-shot1_1/img180.jpg,Images/MSR-VTT-videoTestVideo_video7020-shot1_1/img181.jpg,Images/MSR-VTT-videoTestVideo_video7020-shot1_1/img186.jpg,Images/MSR-VTT-videoTestVideo_video7020-shot1_1/img195.jpg,Images/MSR-VTT-videoTestVideo_video7020-shot1_1/img213.jpg,Images/MSR-VTT-videoTestVideo_video7020-shot1_1/img220.jpg,Images/MSR-VTT-videoTestVideo_video7020-shot1_1/img221.jpg,1495,7,0,2022-06-15_08h04.55.275,annotation,2021.2.3,Win32,60.0060006,,
,,,,,,,,,,,,,,,,,-0.506944444,-0.158333333,1,0,0,image_5,0,16,16,50,1,646,The person on top in the black has his back to the mat.  His right arm is bent backwards very awkwardly and pointed at the ground. ,H,0,7,MSR-VTT-videoTestVideo_video7286-shot1_0,Images/MSR-VTT-videoTestVideo_video7286-shot1_0/img0.jpg,Images/MSR-VTT-videoTestVideo_video7286-shot1_0/img6.jpg,Images/MSR-VTT-videoTestVideo_video7286-shot1_0/img12.jpg,Images/MSR-VTT-videoTestVideo_video7286-shot1_0/img40.jpg,Images/MSR-VTT-videoTestVideo_video7286-shot1_0/img75.jpg,Images/MSR-VTT-videoTestVideo_video7286-shot1_0/img81.jpg,Images/MSR-VTT-videoTestVideo_video7286-shot1_0/img85.jpg,Images/MSR-VTT-videoTestVideo_video7286-shot1_0/img92.jpg,Images/MSR-VTT-videoTestVideo_video7286-shot1_0/img102.jpg,Images/MSR-VTT-videoTestVideo_video7286-shot1_0/img105.jpg,1490,7,0,2022-06-15_08h04.55.275,annotation,2021.2.3,Win32,60.0060006,,
,,,,,,,,,,,,,,,,,-0.25370369,-0.18379631,1,0,0,image_6,0,17,17,4,1,321,Both hands are visible and the left hand is small and moving towards the back. None of his legs are visible and it's not clear whether he's sitting or standing. The bottom edge of the right hand is cut off.,H,0,5,video-storytelling-videocamping_dBXYM3dQTSo-shot51_1,Images/video-storytelling-videocamping_dBXYM3dQTSo-shot51_1/img140.jpg,Images/video-storytelling-videocamping_dBXYM3dQTSo-shot51_1/img143.jpg,Images/video-storytelling-videocamping_dBXYM3dQTSo-shot51_1/img145.jpg,Images/video-storytelling-videocamping_dBXYM3dQTSo-shot51_1/img148.jpg,Images/video-storytelling-videocamping_dBXYM3dQTSo-shot51_1/img160.jpg,Images/video-storytelling-videocamping_dBXYM3dQTSo-shot51_1/img164.jpg,Images/video-storytelling-videocamping_dBXYM3dQTSo-shot51_1/img171.jpg,Images/video-storytelling-videocamping_dBXYM3dQTSo-shot51_1/img175.jpg,Images/video-storytelling-videocamping_dBXYM3dQTSo-shot51_1/img181.jpg,Images/video-storytelling-videocamping_dBXYM3dQTSo-shot51_1/img197.jpg,560,7,0,2022-06-15_08h04.55.275,annotation,2021.2.3,Win32,60.0060006,,
,,,,,,,,,,,,,,,,,0.067592621,-0.159259288,1,0,0,image_7,0,18,18,11,1,373,The largest image has a man with a camera over one eye. You can see his forehead. A collage of other images is coming down from the top.,H,1,7,MSR-VTT-videoTestVideo_video9968-shot1_0,Images/MSR-VTT-videoTestVideo_video9968-shot1_0/img0.jpg,Images/MSR-VTT-videoTestVideo_video9968-shot1_0/img4.jpg,Images/MSR-VTT-videoTestVideo_video9968-shot1_0/img8.jpg,Images/MSR-VTT-videoTestVideo_video9968-shot1_0/img13.jpg,Images/MSR-VTT-videoTestVideo_video9968-shot1_0/img17.jpg,Images/MSR-VTT-videoTestVideo_video9968-shot1_0/img22.jpg,Images/MSR-VTT-videoTestVideo_video9968-shot1_0/img52.jpg,Images/MSR-VTT-videoTestVideo_video9968-shot1_0/img129.jpg,Images/MSR-VTT-videoTestVideo_video9968-shot1_0/img133.jpg,Images/MSR-VTT-videoTestVideo_video9968-shot1_0/img137.jpg,92,7,0,2022-06-15_08h04.55.275,annotation,2021.2.3,Win32,60.0060006,,
,,,,,,,,,,,,,,,,,-0.522222222,0.114814801,1,0,0,image_0,0,19,19,22,1,1773,A little girl in a dress playing with a birthday cake.,M,0,5,video-storytelling-videobirthday__amwPjAcoC8-shot32_1,Images/video-storytelling-videobirthday__amwPjAcoC8-shot32_1/img28.jpg,Images/video-storytelling-videobirthday__amwPjAcoC8-shot32_1/img37.jpg,Images/video-storytelling-videobirthday__amwPjAcoC8-shot32_1/img43.jpg,Images/video-storytelling-videobirthday__amwPjAcoC8-shot32_1/img62.jpg,Images/video-storytelling-videobirthday__amwPjAcoC8-shot32_1/img66.jpg,Images/video-storytelling-videobirthday__amwPjAcoC8-shot32_1/img69.jpg,Images/video-storytelling-videobirthday__amwPjAcoC8-shot32_1/img72.jpg,Images/video-storytelling-videobirthday__amwPjAcoC8-shot32_1/img74.jpg,Images/video-storytelling-videobirthday__amwPjAcoC8-shot32_1/img76.jpg,Images/video-storytelling-videobirthday__amwPjAcoC8-shot32_1/img80.jpg,1938,7,0,2022-06-15_08h04.55.275,annotation,2021.2.3,Win32,60.0060006,,
,,,,,,,,,,,,,,,,,0.012037065,-0.139814843,1,0,0,image_7,0,20,20,32,1,971,The white card with text in the basket is pressed up against the top edge of the picture. ,H,0,7,MSR-VTT-videoTestVideo_video9053-shot1_8,Images/MSR-VTT-videoTestVideo_video9053-shot1_8/img370.jpg,Images/MSR-VTT-videoTestVideo_video9053-shot1_8/img371.jpg,Images/MSR-VTT-videoTestVideo_video9053-shot1_8/img376.jpg,Images/MSR-VTT-videoTestVideo_video9053-shot1_8/img379.jpg,Images/MSR-VTT-videoTestVideo_video9053-shot1_8/img381.jpg,Images/MSR-VTT-videoTestVideo_video9053-shot1_8/img383.jpg,Images/MSR-VTT-videoTestVideo_video9053-shot1_8/img386.jpg,Images/MSR-VTT-videoTestVideo_video9053-shot1_8/img388.jpg,Images/MSR-VTT-videoTestVideo_video9053-shot1_8/img391.jpg,Images/MSR-VTT-videoTestVideo_video9053-shot1_8/img394.jpg,156,7,0,2022-06-15_08h04.55.275,annotation,2021.2.3,Win32,60.0060006,,
,,,,,,,,,,,,,,,,,-0.462962935,-0.120370399,1,0,0,image_5,0,21,21,33,1,756,The camera is angled so it seems its looking from below them up. The person in red has one arm bent besides their body and can see the sky between the elbow and body. The kid's bodies are facing to the left.,H,0,8,MSR-VTT-videoTestVideo_video8955-shot3_2,Images/MSR-VTT-videoTestVideo_video8955-shot3_2/img76.jpg,Images/MSR-VTT-videoTestVideo_video8955-shot3_2/img78.jpg,Images/MSR-VTT-videoTestVideo_video8955-shot3_2/img79.jpg,Images/MSR-VTT-videoTestVideo_video8955-shot3_2/img85.jpg,Images/MSR-VTT-videoTestVideo_video8955-shot3_2/img90.jpg,Images/MSR-VTT-videoTestVideo_video8955-shot3_2/img95.jpg,Images/MSR-VTT-videoTestVideo_video8955-shot3_2/img98.jpg,Images/MSR-VTT-videoTestVideo_video8955-shot3_2/img101.jpg,Images/MSR-VTT-videoTestVideo_video8955-shot3_2/img105.jpg,Images/MSR-VTT-videoTestVideo_video8955-shot3_2/img108.jpg,1388,7,0,2022-06-15_08h04.55.275,annotation,2021.2.3,Win32,60.0060006,,
,,,,,,,,,,,,,,,,,-0.197222222,0.143981467,1,0,0,image_1,0,22,22,20,1,144,Only a blue blurred ball is center right ,H,0,1,MSR-VTT-videoTestVideo_video9169-shot2_0,Images/MSR-VTT-videoTestVideo_video9169-shot2_0/img0.jpg,Images/MSR-VTT-videoTestVideo_video9169-shot2_0/img4.jpg,Images/MSR-VTT-videoTestVideo_video9169-shot2_0/img8.jpg,Images/MSR-VTT-videoTestVideo_video9169-shot2_0/img12.jpg,Images/MSR-VTT-videoTestVideo_video9169-shot2_0/img14.jpg,Images/MSR-VTT-videoTestVideo_video9169-shot2_0/img17.jpg,Images/MSR-VTT-videoTestVideo_video9169-shot2_0/img18.jpg,Images/MSR-VTT-videoTestVideo_video9169-shot2_0/img20.jpg,Images/MSR-VTT-videoTestVideo_video9169-shot2_0/img21.jpg,Images/MSR-VTT-videoTestVideo_video9169-shot2_0/img24.jpg,1602,7,0,2022-06-15_08h04.55.275,annotation,2021.2.3,Win32,60.0060006,,
,,,,,,,,,,,,,,,,,0.047685242,-0.18148151,1,0,0,image_7,0,23,23,53,1,916,"The man's left hand is not touching any part of the pepper, and his four fingers are mostly curled under, and they're mostly blurry.",H,0,7,YouCook-video0034-shot16_2,Images/YouCook-video0034-shot16_2/img275.jpg,Images/YouCook-video0034-shot16_2/img280.jpg,Images/YouCook-video0034-shot16_2/img291.jpg,Images/YouCook-video0034-shot16_2/img301.jpg,Images/YouCook-video0034-shot16_2/img338.jpg,Images/YouCook-video0034-shot16_2/img344.jpg,Images/YouCook-video0034-shot16_2/img347.jpg,Images/YouCook-video0034-shot16_2/img350.jpg,Images/YouCook-video0034-shot16_2/img354.jpg,Images/YouCook-video0034-shot16_2/img367.jpg,1768,7,0,2022-06-15_08h04.55.275,annotation,2021.2.3,Win32,60.0060006,,
,,,,,,,,,,,,,,,,,0.439814843,-0.202314843,1,0,0,image_9,0,24,24,17,1,859,There is a man in a white shirt looking out the window.  You can see both of his arms,H,0,9,video-storytelling-videobirthday_fwpYnUDbusw-shot66_5,Images/video-storytelling-videobirthday_fwpYnUDbusw-shot66_5/img253.jpg,Images/video-storytelling-videobirthday_fwpYnUDbusw-shot66_5/img261.jpg,Images/video-storytelling-videobirthday_fwpYnUDbusw-shot66_5/img268.jpg,Images/video-storytelling-videobirthday_fwpYnUDbusw-shot66_5/img277.jpg,Images/video-storytelling-videobirthday_fwpYnUDbusw-shot66_5/img289.jpg,Images/video-storytelling-videobirthday_fwpYnUDbusw-shot66_5/img294.jpg,Images/video-storytelling-videobirthday_fwpYnUDbusw-shot66_5/img299.jpg,Images/video-storytelling-videobirthday_fwpYnUDbusw-shot66_5/img317.jpg,Images/video-storytelling-videobirthday_fwpYnUDbusw-shot66_5/img336.jpg,Images/video-storytelling-videobirthday_fwpYnUDbusw-shot66_5/img347.jpg,88,7,0,2022-06-15_08h04.55.275,annotation,2021.2.3,Win32,60.0060006,,
,,,,,,,,,,,,,,,,,-0.442592578,0.114814801,1,0,0,image_0,0,25,25,7,1,1322,A woman holding a frisbee in a park.,M,0,5,video-storytelling-videocamping_1OzbiB1TIWI-shot43_10,Images/video-storytelling-videocamping_1OzbiB1TIWI-shot43_10/img544.jpg,Images/video-storytelling-videocamping_1OzbiB1TIWI-shot43_10/img560.jpg,Images/video-storytelling-videocamping_1OzbiB1TIWI-shot43_10/img566.jpg,Images/video-storytelling-videocamping_1OzbiB1TIWI-shot43_10/img574.jpg,Images/video-storytelling-videocamping_1OzbiB1TIWI-shot43_10/img577.jpg,Images/video-storytelling-videocamping_1OzbiB1TIWI-shot43_10/img583.jpg,Images/video-storytelling-videocamping_1OzbiB1TIWI-shot43_10/img593.jpg,Images/video-storytelling-videocamping_1OzbiB1TIWI-shot43_10/img606.jpg,Images/video-storytelling-videocamping_1OzbiB1TIWI-shot43_10/img607.jpg,Images/video-storytelling-videocamping_1OzbiB1TIWI-shot43_10/img610.jpg,1928,7,0,2022-06-15_08h04.55.275,annotation,2021.2.3,Win32,60.0060006,,
,,,,,,,,,,,,,,,,,-0.003240712,0.180092578,1,0,0,image_2,0,26,26,16,1,84,There is overlay of a dragonfly going over a giant ape on a building.  You can see 3 pairs of eyes but some of them are pretty blurry. ,H,0,2,MSR-VTT-videoTestVideo_video7650-shot1_0,Images/MSR-VTT-videoTestVideo_video7650-shot1_0/img0.jpg,Images/MSR-VTT-videoTestVideo_video7650-shot1_0/img7.jpg,Images/MSR-VTT-videoTestVideo_video7650-shot1_0/img8.jpg,Images/MSR-VTT-videoTestVideo_video7650-shot1_0/img9.jpg,Images/MSR-VTT-videoTestVideo_video7650-shot1_0/img11.jpg,Images/MSR-VTT-videoTestVideo_video7650-shot1_0/img13.jpg,Images/MSR-VTT-videoTestVideo_video7650-shot1_0/img17.jpg,Images/MSR-VTT-videoTestVideo_video7650-shot1_0/img19.jpg,Images/MSR-VTT-videoTestVideo_video7650-shot1_0/img22.jpg,Images/MSR-VTT-videoTestVideo_video7650-shot1_0/img51.jpg,330,7,0,2022-06-15_08h04.55.275,annotation,2021.2.3,Win32,60.0060006,,
,,,,,,,,,,,,,,,,,0.185185242,0.165740734,1,0,0,image_3,0,27,27,6,1,782,Camera man's ear is visible but still closest to left edge of image.,H,0,3,MSR-VTT-videoTestVideo_video9508-shot3_0,Images/MSR-VTT-videoTestVideo_video9508-shot3_0/img0.jpg,Images/MSR-VTT-videoTestVideo_video9508-shot3_0/img3.jpg,Images/MSR-VTT-videoTestVideo_video9508-shot3_0/img8.jpg,Images/MSR-VTT-videoTestVideo_video9508-shot3_0/img16.jpg,Images/MSR-VTT-videoTestVideo_video9508-shot3_0/img27.jpg,Images/MSR-VTT-videoTestVideo_video9508-shot3_0/img35.jpg,Images/MSR-VTT-videoTestVideo_video9508-shot3_0/img62.jpg,Images/MSR-VTT-videoTestVideo_video9508-shot3_0/img92.jpg,Images/MSR-VTT-videoTestVideo_video9508-shot3_0/img108.jpg,Images/MSR-VTT-videoTestVideo_video9508-shot3_0/img124.jpg,781,7,0,2022-06-15_08h04.55.275,annotation,2021.2.3,Win32,60.0060006,,
,,,,,,,,,,,,,,,,,0.018055556,-0.151388889,1,0,0,image_7,0,28,28,42,1,418,A blurry woman is pursing her lips together and point with her left hand.,H,0,8,video-storytelling-videocamping_1OzbiB1TIWI-shot12_0,Images/video-storytelling-videocamping_1OzbiB1TIWI-shot12_0/img0.jpg,Images/video-storytelling-videocamping_1OzbiB1TIWI-shot12_0/img6.jpg,Images/video-storytelling-videocamping_1OzbiB1TIWI-shot12_0/img10.jpg,Images/video-storytelling-videocamping_1OzbiB1TIWI-shot12_0/img18.jpg,Images/video-storytelling-videocamping_1OzbiB1TIWI-shot12_0/img34.jpg,Images/video-storytelling-videocamping_1OzbiB1TIWI-shot12_0/img39.jpg,Images/video-storytelling-videocamping_1OzbiB1TIWI-shot12_0/img54.jpg,Images/video-storytelling-videocamping_1OzbiB1TIWI-shot12_0/img64.jpg,Images/video-storytelling-videocamping_1OzbiB1TIWI-shot12_0/img68.jpg,Images/video-storytelling-videocamping_1OzbiB1TIWI-shot12_0/img72.jpg,1981,7,0,2022-06-15_08h04.55.275,annotation,2021.2.3,Win32,60.0060006,,
,,,,,,,,,,,,,,,,,0.249074131,-0.127777778,1,0,0,image_8,0,29,29,5,1,1995,A man and woman standing next to each other.,M,1,1,MSR-VTT-videoTestVideo_video9746-shot3_0,Images/MSR-VTT-videoTestVideo_video9746-shot3_0/img0.jpg,Images/MSR-VTT-videoTestVideo_video9746-shot3_0/img6.jpg,Images/MSR-VTT-videoTestVideo_video9746-shot3_0/img11.jpg,Images/MSR-VTT-videoTestVideo_video9746-shot3_0/img13.jpg,Images/MSR-VTT-videoTestVideo_video9746-shot3_0/img17.jpg,Images/MSR-VTT-videoTestVideo_video9746-shot3_0/img21.jpg,Images/MSR-VTT-videoTestVideo_video9746-shot3_0/img29.jpg,Images/MSR-VTT-videoTestVideo_video9746-shot3_0/img35.jpg,Images/MSR-VTT-videoTestVideo_video9746-shot3_0/img39.jpg,Images/MSR-VTT-videoTestVideo_video9746-shot3_0/img43.jpg,2056,7,0,2022-06-15_08h04.55.275,annotation,2021.2.3,Win32,60.0060006,,
,,,,,,,,,,,,,,,,,0.311111111,-0.185648176,1,0,0,image_8,0,30,30,51,1,417,The girl's hands are flat together and they are fully in the picture.,H,0,8,video-storytelling-videobirthday__amwPjAcoC8-shot80_5,Images/video-storytelling-videobirthday__amwPjAcoC8-shot80_5/img277.jpg,Images/video-storytelling-videobirthday__amwPjAcoC8-shot80_5/img290.jpg,Images/video-storytelling-videobirthday__amwPjAcoC8-shot80_5/img292.jpg,Images/video-storytelling-videobirthday__amwPjAcoC8-shot80_5/img293.jpg,Images/video-storytelling-videobirthday__amwPjAcoC8-shot80_5/img297.jpg,Images/video-storytelling-videobirthday__amwPjAcoC8-shot80_5/img298.jpg,Images/video-storytelling-videobirthday__amwPjAcoC8-shot80_5/img300.jpg,Images/video-storytelling-videobirthday__amwPjAcoC8-shot80_5/img301.jpg,Images/video-storytelling-videobirthday__amwPjAcoC8-shot80_5/img303.jpg,Images/video-storytelling-videobirthday__amwPjAcoC8-shot80_5/img304.jpg,644,7,0,2022-06-15_08h04.55.275,annotation,2021.2.3,Win32,60.0060006,,
,,,,,,,,,,,,,,,,,0.511111111,-0.164814843,1,0,0,image_9,0,31,31,60,1,2,Green type writer with a red tape. ,H,,9,open-images-531_0dd4eb59d465a8be,Checks/check3/open-images-503_1ccd6fa641154ebbimg7.jpg,Checks/check3/open-images-1852_00faf52058ad28b8img4.jpg,Checks/check3/open-images-386_1b2e28d6d994603eimg1.jpg,Checks/check3/open-images-471_1121e9f97c200ac0img8.jpg,Checks/check3/open-images-1886_3db71eaddb618934img8.jpg,Checks/check3/open-images-1696_20a4ebf0c0f76b05img6.jpg,Checks/check3/open-images-2447_128483a48e1552f4img6.jpg,Checks/check3/open-images-2994_9965cbf8aa20bda0img2.jpg,Checks/check3/open-images-1068_03d63613107970b3img6.jpg,Checks/check3/open-images-531_0dd4eb59d465a8beimg9.jpg,,,1,2022-06-15_08h04.55.275,annotation,2021.2.3,Win32,60.0060006,,
,,,,,,,,,,,,,,,,,-0.446759245,-0.173611111,1,0,0,image_5,0,32,32,45,1,459,"The stuffed puppy is ""looking up"" at the woman in a robe. You can see only the snout of the real dog, not the eye. The stuffed puppy's tail is cut off by the frame.",H,0,5,video-storytelling-videochristmas_5RR_sRzKODA-shot23_1,Images/video-storytelling-videochristmas_5RR_sRzKODA-shot23_1/img137.jpg,Images/video-storytelling-videochristmas_5RR_sRzKODA-shot23_1/img139.jpg,Images/video-storytelling-videochristmas_5RR_sRzKODA-shot23_1/img143.jpg,Images/video-storytelling-videochristmas_5RR_sRzKODA-shot23_1/img145.jpg,Images/video-storytelling-videochristmas_5RR_sRzKODA-shot23_1/img147.jpg,Images/video-storytelling-videochristmas_5RR_sRzKODA-shot23_1/img149.jpg,Images/video-storytelling-videochristmas_5RR_sRzKODA-shot23_1/img152.jpg,Images/video-storytelling-videochristmas_5RR_sRzKODA-shot23_1/img153.jpg,Images/video-storytelling-videochristmas_5RR_sRzKODA-shot23_1/img156.jpg,Images/video-storytelling-videochristmas_5RR_sRzKODA-shot23_1/img157.jpg,208,7,0,2022-06-15_08h04.55.275,annotation,2021.2.3,Win32,60.0060006,,
,,,,,,,,,,,,,,,,,-0.490740712,0.082870356,1,0,0,image_0,0,33,33,39,1,2030,A picture of a dog with a dog on top of it.,M,0,3,video-storytelling-videobirthday__amwPjAcoC8-shot73_4,Images/video-storytelling-videobirthday__amwPjAcoC8-shot73_4/img129.jpg,Images/video-storytelling-videobirthday__amwPjAcoC8-shot73_4/img130.jpg,Images/video-storytelling-videobirthday__amwPjAcoC8-shot73_4/img136.jpg,Images/video-storytelling-videobirthday__amwPjAcoC8-shot73_4/img139.jpg,Images/video-storytelling-videobirthday__amwPjAcoC8-shot73_4/img149.jpg,Images/video-storytelling-videobirthday__amwPjAcoC8-shot73_4/img153.jpg,Images/video-storytelling-videobirthday__amwPjAcoC8-shot73_4/img155.jpg,Images/video-storytelling-videobirthday__amwPjAcoC8-shot73_4/img157.jpg,Images/video-storytelling-videobirthday__amwPjAcoC8-shot73_4/img160.jpg,Images/video-storytelling-videobirthday__amwPjAcoC8-shot73_4/img162.jpg,1821,7,0,2022-06-15_08h04.55.275,annotation,2021.2.3,Win32,60.0060006,,
,,,,,,,,,,,,,,,,,-0.239351824,0.144444444,1,0,0,image_1,0,34,34,62,1,4,A penguin holding a piece of paper with text on it. ,H,,1,open-images-2521_074d6af730ed17a6,Checks/check5/open-images-509_4d8bd994cb8c6eaeimg0.jpg,Checks/check5/open-images-2521_074d6af730ed17a6img1.jpg,Checks/check5/open-images-1365_a00a5fde334ae45aimg4.jpg,Checks/check5/open-images-1602_44092afdeab39e73img6.jpg,Checks/check5/open-images-1032_059f3cdfb85ee0ceimg3.jpg,Checks/check5/open-images-727_25b77fff36adba66img2.jpg,Checks/check5/open-images-2208_0fb92b9978d98575img2.jpg,Checks/check5/open-images-1305_05769e6abb16fdc8img9.jpg,Checks/check5/open-images-2676_052dbf7b4899430bimg1.jpg,Checks/check5/open-images-2569_1e81d79bb796a2dbimg7.jpg,,,1,2022-06-15_08h04.55.275,annotation,2021.2.3,Win32,60.0060006,,
,,,,,,,,,,,,,,,,,0.043055556,-0.155555556,1,0,0,image_7,0,35,35,40,1,1868,A person cutting up a sandwich on a plate.,M,0,2,YouCook-video0082-shot1_0,Images/YouCook-video0082-shot1_0/img0.jpg,Images/YouCook-video0082-shot1_0/img7.jpg,Images/YouCook-video0082-shot1_0/img18.jpg,Images/YouCook-video0082-shot1_0/img92.jpg,Images/YouCook-video0082-shot1_0/img95.jpg,Images/YouCook-video0082-shot1_0/img116.jpg,Images/YouCook-video0082-shot1_0/img159.jpg,Images/YouCook-video0082-shot1_0/img167.jpg,Images/YouCook-video0082-shot1_0/img174.jpg,Images/YouCook-video0082-shot1_0/img200.jpg,1129,7,0,2022-06-15_08h04.55.275,annotation,2021.2.3,Win32,60.0060006,,
,,,,,,,,,,,,,,,,,-0.207407379,-0.149537065,1,0,0,image_6,0,36,36,41,1,555,"The plate the person is holding is just starting to be in front of the door, covering just the weatherstrip.",H,0,4,YouCook-video0017-shot2_3,Images/YouCook-video0017-shot2_3/img157.jpg,Images/YouCook-video0017-shot2_3/img159.jpg,Images/YouCook-video0017-shot2_3/img160.jpg,Images/YouCook-video0017-shot2_3/img161.jpg,Images/YouCook-video0017-shot2_3/img164.jpg,Images/YouCook-video0017-shot2_3/img165.jpg,Images/YouCook-video0017-shot2_3/img167.jpg,Images/YouCook-video0017-shot2_3/img172.jpg,Images/YouCook-video0017-shot2_3/img176.jpg,Images/YouCook-video0017-shot2_3/img180.jpg,2006,7,0,2022-06-15_08h04.55.275,annotation,2021.2.3,Win32,60.0060006,,
,,,,,,,,,,,,,,,,,-0.484259245,0.10601849,1,0,0,image_0,0,37,37,21,1,1501,A woman holding a box of macaroni and cheese.,M,0,3,video-storytelling-videobirthday_fwpYnUDbusw-shot18_1,Images/video-storytelling-videobirthday_fwpYnUDbusw-shot18_1/img58.jpg,Images/video-storytelling-videobirthday_fwpYnUDbusw-shot18_1/img64.jpg,Images/video-storytelling-videobirthday_fwpYnUDbusw-shot18_1/img67.jpg,Images/video-storytelling-videobirthday_fwpYnUDbusw-shot18_1/img73.jpg,Images/video-storytelling-videobirthday_fwpYnUDbusw-shot18_1/img80.jpg,Images/video-storytelling-videobirthday_fwpYnUDbusw-shot18_1/img82.jpg,Images/video-storytelling-videobirthday_fwpYnUDbusw-shot18_1/img85.jpg,Images/video-storytelling-videobirthday_fwpYnUDbusw-shot18_1/img87.jpg,Images/video-storytelling-videobirthday_fwpYnUDbusw-shot18_1/img93.jpg,Images/video-storytelling-videobirthday_fwpYnUDbusw-shot18_1/img96.jpg,1137,7,0,2022-06-15_08h04.55.275,annotation,2021.2.3,Win32,60.0060006,,
,,,,,,,,,,,,,,,,,-0.510185157,0.206944444,1,0,0,image_0,0,38,38,54,1,778,The person's ring is highest to to the top of the image.,H,1,0,YouCook-video0035-shot9_1,Images/YouCook-video0035-shot9_1/img61.jpg,Images/YouCook-video0035-shot9_1/img64.jpg,Images/YouCook-video0035-shot9_1/img67.jpg,Images/YouCook-video0035-shot9_1/img76.jpg,Images/YouCook-video0035-shot9_1/img79.jpg,Images/YouCook-video0035-shot9_1/img90.jpg,Images/YouCook-video0035-shot9_1/img116.jpg,Images/YouCook-video0035-shot9_1/img263.jpg,Images/YouCook-video0035-shot9_1/img266.jpg,Images/YouCook-video0035-shot9_1/img269.jpg,851,7,0,2022-06-15_08h04.55.275,annotation,2021.2.3,Win32,60.0060006,,
,,,,,,,,,,,,,,,,,0.533333333,0.160185178,1,0,0,image_4,0,39,39,37,1,624,The car is directly facing the corner of a street. You can see two potholes to the right an SUV facing left in the driveway in the distance.,H,0,5,MSR-VTT-videoTestVideo_video9706-shot1_0,Images/MSR-VTT-videoTestVideo_video9706-shot1_0/img0.jpg,Images/MSR-VTT-videoTestVideo_video9706-shot1_0/img9.jpg,Images/MSR-VTT-videoTestVideo_video9706-shot1_0/img22.jpg,Images/MSR-VTT-videoTestVideo_video9706-shot1_0/img24.jpg,Images/MSR-VTT-videoTestVideo_video9706-shot1_0/img34.jpg,Images/MSR-VTT-videoTestVideo_video9706-shot1_0/img49.jpg,Images/MSR-VTT-videoTestVideo_video9706-shot1_0/img55.jpg,Images/MSR-VTT-videoTestVideo_video9706-shot1_0/img66.jpg,Images/MSR-VTT-videoTestVideo_video9706-shot1_0/img67.jpg,Images/MSR-VTT-videoTestVideo_video9706-shot1_0/img77.jpg,253,7,0,2022-06-15_08h04.55.275,annotation,2021.2.3,Win32,60.0060006,,
,,,,,,,,,,,,,,,,,0.529166667,-0.16898151,1,0,0,image_9,0,40,40,35,1,732,The woman's fingers are right by the left ear of the cat,H,0,2,MSR-VTT-videoTestVideo_video8965-shot1_0,Images/MSR-VTT-videoTestVideo_video8965-shot1_0/img0.jpg,Images/MSR-VTT-videoTestVideo_video8965-shot1_0/img5.jpg,Images/MSR-VTT-videoTestVideo_video8965-shot1_0/img31.jpg,Images/MSR-VTT-videoTestVideo_video8965-shot1_0/img80.jpg,Images/MSR-VTT-videoTestVideo_video8965-shot1_0/img242.jpg,Images/MSR-VTT-videoTestVideo_video8965-shot1_0/img250.jpg,Images/MSR-VTT-videoTestVideo_video8965-shot1_0/img287.jpg,Images/MSR-VTT-videoTestVideo_video8965-shot1_0/img318.jpg,Images/MSR-VTT-videoTestVideo_video8965-shot1_0/img402.jpg,Images/MSR-VTT-videoTestVideo_video8965-shot1_0/img473.jpg,1595,7,0,2022-06-15_08h04.55.275,annotation,2021.2.3,Win32,60.0060006,,
,,,,,,,,,,,,,,,,,-0.251388889,0.099074046,1,0,0,image_1,0,41,41,24,1,811,There is a hand in front of a purple book.  Most of the fingers are easily visible but there is some blur on the hand. ,H,0,1,MSR-VTT-videoTestVideo_video7657-shot2_1,Images/MSR-VTT-videoTestVideo_video7657-shot2_1/img55.jpg,Images/MSR-VTT-videoTestVideo_video7657-shot2_1/img64.jpg,Images/MSR-VTT-videoTestVideo_video7657-shot2_1/img78.jpg,Images/MSR-VTT-videoTestVideo_video7657-shot2_1/img82.jpg,Images/MSR-VTT-videoTestVideo_video7657-shot2_1/img84.jpg,Images/MSR-VTT-videoTestVideo_video7657-shot2_1/img90.jpg,Images/MSR-VTT-videoTestVideo_video7657-shot2_1/img96.jpg,Images/MSR-VTT-videoTestVideo_video7657-shot2_1/img98.jpg,Images/MSR-VTT-videoTestVideo_video7657-shot2_1/img102.jpg,Images/MSR-VTT-videoTestVideo_video7657-shot2_1/img109.jpg,226,7,0,2022-06-15_08h04.55.275,annotation,2021.2.3,Win32,60.0060006,,
,,,,,,,,,,,,,,,,,0.485648176,0.089814801,1,0,0,image_4,0,42,42,13,1,303,Only very little liquid is visible in the bottom left corner of the container,H,0,5,MSR-VTT-videoTestVideo_video8883-shot1_0,Images/MSR-VTT-videoTestVideo_video8883-shot1_0/img0.jpg,Images/MSR-VTT-videoTestVideo_video8883-shot1_0/img14.jpg,Images/MSR-VTT-videoTestVideo_video8883-shot1_0/img16.jpg,Images/MSR-VTT-videoTestVideo_video8883-shot1_0/img19.jpg,Images/MSR-VTT-videoTestVideo_video8883-shot1_0/img22.jpg,Images/MSR-VTT-videoTestVideo_video8883-shot1_0/img49.jpg,Images/MSR-VTT-videoTestVideo_video8883-shot1_0/img177.jpg,Images/MSR-VTT-videoTestVideo_video8883-shot1_0/img197.jpg,Images/MSR-VTT-videoTestVideo_video8883-shot1_0/img213.jpg,Images/MSR-VTT-videoTestVideo_video8883-shot1_0/img250.jpg,176,7,0,2022-06-15_08h04.55.275,annotation,2021.2.3,Win32,60.0060006,,
,,,,,,,,,,,,,,,,,-0.552314801,0.214814801,1,0,0,image_0,0,43,43,31,1,874,The blurry grey object takes up the top right hand corner of the screen,H,0,8,MSR-VTT-videoTestVideo_video8717-shot0_0,Images/MSR-VTT-videoTestVideo_video8717-shot0_0/img0.jpg,Images/MSR-VTT-videoTestVideo_video8717-shot0_0/img1.jpg,Images/MSR-VTT-videoTestVideo_video8717-shot0_0/img3.jpg,Images/MSR-VTT-videoTestVideo_video8717-shot0_0/img4.jpg,Images/MSR-VTT-videoTestVideo_video8717-shot0_0/img5.jpg,Images/MSR-VTT-videoTestVideo_video8717-shot0_0/img6.jpg,Images/MSR-VTT-videoTestVideo_video8717-shot0_0/img8.jpg,Images/MSR-VTT-videoTestVideo_video8717-shot0_0/img9.jpg,Images/MSR-VTT-videoTestVideo_video8717-shot0_0/img12.jpg,Images/MSR-VTT-videoTestVideo_video8717-shot0_0/img17.jpg,2038,7,0,2022-06-15_08h04.55.275,annotation,2021.2.3,Win32,60.0060006,,
,,,,,,,,,,,,,,,,,0.267592621,-0.171759288,1,0,0,image_8,0,44,44,30,1,1035,"The hand is not visible, but the hand's shadow is just to the right of the bowl.",H,0,7,MSR-VTT-videoTestVideo_video8853-shot1_1,Images/MSR-VTT-videoTestVideo_video8853-shot1_1/img151.jpg,Images/MSR-VTT-videoTestVideo_video8853-shot1_1/img163.jpg,Images/MSR-VTT-videoTestVideo_video8853-shot1_1/img165.jpg,Images/MSR-VTT-videoTestVideo_video8853-shot1_1/img173.jpg,Images/MSR-VTT-videoTestVideo_video8853-shot1_1/img189.jpg,Images/MSR-VTT-videoTestVideo_video8853-shot1_1/img207.jpg,Images/MSR-VTT-videoTestVideo_video8853-shot1_1/img215.jpg,Images/MSR-VTT-videoTestVideo_video8853-shot1_1/img250.jpg,Images/MSR-VTT-videoTestVideo_video8853-shot1_1/img286.jpg,Images/MSR-VTT-videoTestVideo_video8853-shot1_1/img305.jpg,199,7,0,2022-06-15_08h04.55.275,annotation,2021.2.3,Win32,60.0060006,,
,,,,,,,,,,,,,,,,,0.228703732,0.201388889,1,0,0,image_3,0,45,45,38,1,1021,The white plate the cake is on is all the way to the left and there is no thumb.,H,0,3,YouCook-video0008-shot8_1,Images/YouCook-video0008-shot8_1/img70.jpg,Images/YouCook-video0008-shot8_1/img111.jpg,Images/YouCook-video0008-shot8_1/img112.jpg,Images/YouCook-video0008-shot8_1/img119.jpg,Images/YouCook-video0008-shot8_1/img122.jpg,Images/YouCook-video0008-shot8_1/img125.jpg,Images/YouCook-video0008-shot8_1/img126.jpg,Images/YouCook-video0008-shot8_1/img144.jpg,Images/YouCook-video0008-shot8_1/img147.jpg,Images/YouCook-video0008-shot8_1/img165.jpg,689,7,0,2022-06-15_08h04.55.275,annotation,2021.2.3,Win32,60.0060006,,
,,,,,,,,,,,,,,,,,0.001851908,-0.172685199,1,0,0,image_7,0,46,46,28,1,280,The girl is looking fully to the right.,H,1,7,video-storytelling-videocamping_dBXYM3dQTSo-shot10_0,Images/video-storytelling-videocamping_dBXYM3dQTSo-shot10_0/img0.jpg,Images/video-storytelling-videocamping_dBXYM3dQTSo-shot10_0/img2.jpg,Images/video-storytelling-videocamping_dBXYM3dQTSo-shot10_0/img17.jpg,Images/video-storytelling-videocamping_dBXYM3dQTSo-shot10_0/img100.jpg,Images/video-storytelling-videocamping_dBXYM3dQTSo-shot10_0/img120.jpg,Images/video-storytelling-videocamping_dBXYM3dQTSo-shot10_0/img245.jpg,Images/video-storytelling-videocamping_dBXYM3dQTSo-shot10_0/img250.jpg,Images/video-storytelling-videocamping_dBXYM3dQTSo-shot10_0/img254.jpg,Images/video-storytelling-videocamping_dBXYM3dQTSo-shot10_0/img262.jpg,Images/video-storytelling-videocamping_dBXYM3dQTSo-shot10_0/img266.jpg,1472,7,0,2022-06-15_08h04.55.275,annotation,2021.2.3,Win32,60.0060006,,
,,,,,,,,,,,,,,,,,0.561111111,-0.189814843,1,0,0,image_9,0,47,47,29,1,1283,A close up of a person's bare feet.,M,1,4,MSR-VTT-videoTestVideo_video9528-shot1_0,Images/MSR-VTT-videoTestVideo_video9528-shot1_0/img0.jpg,Images/MSR-VTT-videoTestVideo_video9528-shot1_0/img6.jpg,Images/MSR-VTT-videoTestVideo_video9528-shot1_0/img16.jpg,Images/MSR-VTT-videoTestVideo_video9528-shot1_0/img25.jpg,Images/MSR-VTT-videoTestVideo_video9528-shot1_0/img52.jpg,Images/MSR-VTT-videoTestVideo_video9528-shot1_0/img55.jpg,Images/MSR-VTT-videoTestVideo_video9528-shot1_0/img82.jpg,Images/MSR-VTT-videoTestVideo_video9528-shot1_0/img140.jpg,Images/MSR-VTT-videoTestVideo_video9528-shot1_0/img167.jpg,Images/MSR-VTT-videoTestVideo_video9528-shot1_0/img180.jpg,1911,7,0,2022-06-15_08h04.55.275,annotation,2021.2.3,Win32,60.0060006,,
,,,,,,,,,,,,,,,,,-0.430092578,0.1375,1,0,0,image_0,0,48,48,49,1,1478,A group of people sitting on a lawn with a man and a woman.,M,0,8,video-storytelling-videowedding_Bp8t824h5NE-shot46_0,Images/video-storytelling-videowedding_Bp8t824h5NE-shot46_0/img0.jpg,Images/video-storytelling-videowedding_Bp8t824h5NE-shot46_0/img9.jpg,Images/video-storytelling-videowedding_Bp8t824h5NE-shot46_0/img20.jpg,Images/video-storytelling-videowedding_Bp8t824h5NE-shot46_0/img27.jpg,Images/video-storytelling-videowedding_Bp8t824h5NE-shot46_0/img39.jpg,Images/video-storytelling-videowedding_Bp8t824h5NE-shot46_0/img50.jpg,Images/video-storytelling-videowedding_Bp8t824h5NE-shot46_0/img61.jpg,Images/video-storytelling-videowedding_Bp8t824h5NE-shot46_0/img65.jpg,Images/video-storytelling-videowedding_Bp8t824h5NE-shot46_0/img76.jpg,Images/video-storytelling-videowedding_Bp8t824h5NE-shot46_0/img81.jpg,1679,7,0,2022-06-15_08h04.55.275,annotation,2021.2.3,Win32,60.0060006,,
,,,,,,,,,,,,,,,,,0.478703732,-0.181944444,1,0,0,image_9,0,49,49,36,1,1171,A dog laying on top of a pile of rocks.,M,0,2,video-storytelling-videocamping_EytINruY3-U-shot37_0,Images/video-storytelling-videocamping_EytINruY3-U-shot37_0/img0.jpg,Images/video-storytelling-videocamping_EytINruY3-U-shot37_0/img16.jpg,Images/video-storytelling-videocamping_EytINruY3-U-shot37_0/img21.jpg,Images/video-storytelling-videocamping_EytINruY3-U-shot37_0/img42.jpg,Images/video-storytelling-videocamping_EytINruY3-U-shot37_0/img141.jpg,Images/video-storytelling-videocamping_EytINruY3-U-shot37_0/img159.jpg,Images/video-storytelling-videocamping_EytINruY3-U-shot37_0/img315.jpg,Images/video-storytelling-videocamping_EytINruY3-U-shot37_0/img317.jpg,Images/video-storytelling-videocamping_EytINruY3-U-shot37_0/img318.jpg,Images/video-storytelling-videocamping_EytINruY3-U-shot37_0/img321.jpg,305,7,0,2022-06-15_08h04.55.275,annotation,2021.2.3,Win32,60.0060006,,
,,,,,,,,,,,,,,,,,-0.532870356,0.180555556,1,0,0,image_0,0,50,50,14,1,804,A large brown swirl is almost fully visible in the top left corner of the image,H,0,2,MSR-VTT-videoTestVideo_video7566-shot2_1,Images/MSR-VTT-videoTestVideo_video7566-shot2_1/img87.jpg,Images/MSR-VTT-videoTestVideo_video7566-shot2_1/img96.jpg,Images/MSR-VTT-videoTestVideo_video7566-shot2_1/img104.jpg,Images/MSR-VTT-videoTestVideo_video7566-shot2_1/img106.jpg,Images/MSR-VTT-videoTestVideo_video7566-shot2_1/img109.jpg,Images/MSR-VTT-videoTestVideo_video7566-shot2_1/img112.jpg,Images/MSR-VTT-videoTestVideo_video7566-shot2_1/img116.jpg,Images/MSR-VTT-videoTestVideo_video7566-shot2_1/img118.jpg,Images/MSR-VTT-videoTestVideo_video7566-shot2_1/img121.jpg,Images/MSR-VTT-videoTestVideo_video7566-shot2_1/img126.jpg,1640,7,0,2022-06-15_08h04.55.275,annotation,2021.2.3,Win32,60.0060006,,
,,,,,,,,,,,,,,,,,0.289351908,0.07870369,1,0,0,image_3,0,51,51,12,1,140,You can start to see the fingers on the woman's left hand who has glasses on.  You can't see her right arm at all. ,H,0,3,MSR-VTT-videoTestVideo_video8115-shot1_0,Images/MSR-VTT-videoTestVideo_video8115-shot1_0/img0.jpg,Images/MSR-VTT-videoTestVideo_video8115-shot1_0/img13.jpg,Images/MSR-VTT-videoTestVideo_video8115-shot1_0/img79.jpg,Images/MSR-VTT-videoTestVideo_video8115-shot1_0/img129.jpg,Images/MSR-VTT-videoTestVideo_video8115-shot1_0/img145.jpg,Images/MSR-VTT-videoTestVideo_video8115-shot1_0/img178.jpg,Images/MSR-VTT-videoTestVideo_video8115-shot1_0/img191.jpg,Images/MSR-VTT-videoTestVideo_video8115-shot1_0/img207.jpg,Images/MSR-VTT-videoTestVideo_video8115-shot1_0/img228.jpg,Images/MSR-VTT-videoTestVideo_video8115-shot1_0/img243.jpg,779,7,0,2022-06-15_08h04.55.275,annotation,2021.2.3,Win32,60.0060006,,
,,,,,,,,,,,,,,,,,-0.461111111,-0.160185199,1,0,0,image_5,0,52,52,3,1,950,The man has curled his finger close together over the yellow bar and he is slightly smiling.,H,0,2,MSR-VTT-videoTestVideo_video7224-shot1_2,Images/MSR-VTT-videoTestVideo_video7224-shot1_2/img323.jpg,Images/MSR-VTT-videoTestVideo_video7224-shot1_2/img332.jpg,Images/MSR-VTT-videoTestVideo_video7224-shot1_2/img338.jpg,Images/MSR-VTT-videoTestVideo_video7224-shot1_2/img347.jpg,Images/MSR-VTT-videoTestVideo_video7224-shot1_2/img383.jpg,Images/MSR-VTT-videoTestVideo_video7224-shot1_2/img396.jpg,Images/MSR-VTT-videoTestVideo_video7224-shot1_2/img405.jpg,Images/MSR-VTT-videoTestVideo_video7224-shot1_2/img452.jpg,Images/MSR-VTT-videoTestVideo_video7224-shot1_2/img484.jpg,Images/MSR-VTT-videoTestVideo_video7224-shot1_2/img507.jpg,461,7,0,2022-06-15_08h04.55.275,annotation,2021.2.3,Win32,60.0060006,,
,,,,,,,,,,,,,,,,,0.015277778,-0.202777778,1,0,0,image_7,0,53,53,8,1,903,The singer's mouth is partially blocked by the microphone.  The mouth is clearly open.  You can see a few fingers on the left hand on the neck of the guitar. The right hand is not visible.,H,0,7,MSR-VTT-videoTestVideo_video9947-shot2_0,Images/MSR-VTT-videoTestVideo_video9947-shot2_0/img0.jpg,Images/MSR-VTT-videoTestVideo_video9947-shot2_0/img11.jpg,Images/MSR-VTT-videoTestVideo_video9947-shot2_0/img22.jpg,Images/MSR-VTT-videoTestVideo_video9947-shot2_0/img55.jpg,Images/MSR-VTT-videoTestVideo_video9947-shot2_0/img78.jpg,Images/MSR-VTT-videoTestVideo_video9947-shot2_0/img87.jpg,Images/MSR-VTT-videoTestVideo_video9947-shot2_0/img98.jpg,Images/MSR-VTT-videoTestVideo_video9947-shot2_0/img123.jpg,Images/MSR-VTT-videoTestVideo_video9947-shot2_0/img125.jpg,Images/MSR-VTT-videoTestVideo_video9947-shot2_0/img148.jpg,542,7,0,2022-06-15_08h04.55.275,annotation,2021.2.3,Win32,60.0060006,,
,,,,,,,,,,,,,,,,,0.004166667,-0.165277778,1,0,0,image_7,0,54,54,55,1,509,The boy's hand is up and covers most of his one eye on the left of the picture.,H,1,7,video-storytelling-videobirthday__amwPjAcoC8-shot11_1,Images/video-storytelling-videobirthday__amwPjAcoC8-shot11_1/img35.jpg,Images/video-storytelling-videobirthday__amwPjAcoC8-shot11_1/img41.jpg,Images/video-storytelling-videobirthday__amwPjAcoC8-shot11_1/img46.jpg,Images/video-storytelling-videobirthday__amwPjAcoC8-shot11_1/img56.jpg,Images/video-storytelling-videobirthday__amwPjAcoC8-shot11_1/img101.jpg,Images/video-storytelling-videobirthday__amwPjAcoC8-shot11_1/img112.jpg,Images/video-storytelling-videobirthday__amwPjAcoC8-shot11_1/img118.jpg,Images/video-storytelling-videobirthday__amwPjAcoC8-shot11_1/img120.jpg,Images/video-storytelling-videobirthday__amwPjAcoC8-shot11_1/img121.jpg,Images/video-storytelling-videobirthday__amwPjAcoC8-shot11_1/img125.jpg,54,7,0,2022-06-15_08h04.55.275,annotation,2021.2.3,Win32,60.0060006,,
,,,,,,,,,,,,,,,,,0.484259288,-0.1625,1,0,0,image_9,0,55,55,48,1,1031,"The two thumbs are touching, the string can not be seen between the thumbs.",H,0,3,MSR-VTT-videoTestVideo_video9390-shot1_3,Images/MSR-VTT-videoTestVideo_video9390-shot1_3/img351.jpg,Images/MSR-VTT-videoTestVideo_video9390-shot1_3/img364.jpg,Images/MSR-VTT-videoTestVideo_video9390-shot1_3/img368.jpg,Images/MSR-VTT-videoTestVideo_video9390-shot1_3/img382.jpg,Images/MSR-VTT-videoTestVideo_video9390-shot1_3/img390.jpg,Images/MSR-VTT-videoTestVideo_video9390-shot1_3/img396.jpg,Images/MSR-VTT-videoTestVideo_video9390-shot1_3/img408.jpg,Images/MSR-VTT-videoTestVideo_video9390-shot1_3/img420.jpg,Images/MSR-VTT-videoTestVideo_video9390-shot1_3/img427.jpg,Images/MSR-VTT-videoTestVideo_video9390-shot1_3/img500.jpg,1775,7,0,2022-06-15_08h04.55.275,annotation,2021.2.3,Win32,60.0060006,,
,,,,,,,,,,,,,,,,,0.016666667,0.162037023,1,0,0,image_2,0,56,56,61,1,3,A grey elephant with golden leaves on it. ,H,,2,open-images-1745_0ed62fe71809b2f5,Checks/check4/open-images-2609_3f72daeb23764ecfimg6.jpg,Checks/check4/open-images-1928_60679e2899870e08img1.jpg,Checks/check4/open-images-1745_0ed62fe71809b2f5img2.jpg,Checks/check4/open-images-1811_9ae6351c7f7565edimg0.jpg,Checks/check4/open-images-1721_6f04da11945ea492img3.jpg,Checks/check4/open-images-1907_5f9be3e4ea5e22c7img2.jpg,Checks/check4/open-images-580_0ddffb9c25141999img1.jpg,Checks/check4/open-images-2924_0645dcbcf998fed9img3.jpg,Checks/check4/open-images-869_856ecbcb5faf76e3img8.jpg,Checks/check4/open-images-250_02039517e63a91fbimg1.jpg,,,1,2022-06-15_08h04.55.275,annotation,2021.2.3,Win32,60.0060006,,
,,,,,,,,,,,,,,,,,-0.185185157,-0.15879631,1,0,0,image_6,0,57,57,43,1,964,The girl in the black shirt is looking down and to the left.,H,0,6,video-storytelling-videocamping_dBXYM3dQTSo-shot83_3,Images/video-storytelling-videocamping_dBXYM3dQTSo-shot83_3/img202.jpg,Images/video-storytelling-videocamping_dBXYM3dQTSo-shot83_3/img225.jpg,Images/video-storytelling-videocamping_dBXYM3dQTSo-shot83_3/img237.jpg,Images/video-storytelling-videocamping_dBXYM3dQTSo-shot83_3/img242.jpg,Images/video-storytelling-videocamping_dBXYM3dQTSo-shot83_3/img254.jpg,Images/video-storytelling-videocamping_dBXYM3dQTSo-shot83_3/img273.jpg,Images/video-storytelling-videocamping_dBXYM3dQTSo-shot83_3/img311.jpg,Images/video-storytelling-videocamping_dBXYM3dQTSo-shot83_3/img322.jpg,Images/video-storytelling-videocamping_dBXYM3dQTSo-shot83_3/img326.jpg,Images/video-storytelling-videocamping_dBXYM3dQTSo-shot83_3/img351.jpg,1598,7,0,2022-06-15_08h04.55.275,annotation,2021.2.3,Win32,60.0060006,,
,,,,,,,,,,,,,,,,,0.495370399,-0.189814843,1,0,0,image_9,0,58,58,10,1,1057,A man standing next to a girl in a pond.,M,1,2,MSR-VTT-videoTestVideo_video7816-shot0_0,Images/MSR-VTT-videoTestVideo_video7816-shot0_0/img0.jpg,Images/MSR-VTT-videoTestVideo_video7816-shot0_0/img7.jpg,Images/MSR-VTT-videoTestVideo_video7816-shot0_0/img13.jpg,Images/MSR-VTT-videoTestVideo_video7816-shot0_0/img15.jpg,Images/MSR-VTT-videoTestVideo_video7816-shot0_0/img21.jpg,Images/MSR-VTT-videoTestVideo_video7816-shot0_0/img26.jpg,Images/MSR-VTT-videoTestVideo_video7816-shot0_0/img33.jpg,Images/MSR-VTT-videoTestVideo_video7816-shot0_0/img36.jpg,Images/MSR-VTT-videoTestVideo_video7816-shot0_0/img37.jpg,Images/MSR-VTT-videoTestVideo_video7816-shot0_0/img39.jpg,331,7,0,2022-06-15_08h04.55.275,annotation,2021.2.3,Win32,60.0060006,,
,,,,,,,,,,,,,,,,,0.024074131,-0.175925954,1,0,0,image_7,0,59,59,15,1,1857,a close up of a girl with a hat on her head.,M,0,8,MSR-VTT-videoTestVideo_video8496-shot1_0,Images/MSR-VTT-videoTestVideo_video8496-shot1_0/img0.jpg,Images/MSR-VTT-videoTestVideo_video8496-shot1_0/img4.jpg,Images/MSR-VTT-videoTestVideo_video8496-shot1_0/img6.jpg,Images/MSR-VTT-videoTestVideo_video8496-shot1_0/img7.jpg,Images/MSR-VTT-videoTestVideo_video8496-shot1_0/img9.jpg,Images/MSR-VTT-videoTestVideo_video8496-shot1_0/img11.jpg,Images/MSR-VTT-videoTestVideo_video8496-shot1_0/img18.jpg,Images/MSR-VTT-videoTestVideo_video8496-shot1_0/img27.jpg,Images/MSR-VTT-videoTestVideo_video8496-shot1_0/img69.jpg,Images/MSR-VTT-videoTestVideo_video8496-shot1_0/img75.jpg,1280,7,0,2022-06-15_08h04.55.275,annotation,2021.2.3,Win32,60.0060006,,
,,,,,,,,,,,,,,,,,-0.479629601,0.133333333,1,0,0,image_0,0,60,60,27,1,1248,"A plate full of shrimp, broccoli, and onions.",M,0,6,MSR-VTT-videoTestVideo_video9409-shot1_0,Images/MSR-VTT-videoTestVideo_video9409-shot1_0/img0.jpg,Images/MSR-VTT-videoTestVideo_video9409-shot1_0/img5.jpg,Images/MSR-VTT-videoTestVideo_video9409-shot1_0/img15.jpg,Images/MSR-VTT-videoTestVideo_video9409-shot1_0/img26.jpg,Images/MSR-VTT-videoTestVideo_video9409-shot1_0/img42.jpg,Images/MSR-VTT-videoTestVideo_video9409-shot1_0/img64.jpg,Images/MSR-VTT-videoTestVideo_video9409-shot1_0/img97.jpg,Images/MSR-VTT-videoTestVideo_video9409-shot1_0/img112.jpg,Images/MSR-VTT-videoTestVideo_video9409-shot1_0/img128.jpg,Images/MSR-VTT-videoTestVideo_video9409-shot1_0/img206.jpg,878,7,0,2022-06-15_08h04.55.275,annotation,2021.2.3,Win32,60.0060006,,
,,,,,,,,,,,,,,,,,0.00648151,0.158796289,1,0,0,image_2,0,61,61,58,1,0,Pair of black gloves,H,,2,open-images-510_3a241cb30d6e5319,Checks/check1/open-images-225_1442c0d0ef23d58bimg3.jpg,Checks/check1/open-images-2759_3a42708fe77398b7img8.jpg,Checks/check1/open-images-510_3a241cb30d6e5319img2.jpg,Checks/check1/open-images-2209_02c98146fb93ff17img1.jpg,Checks/check1/open-images-1553_0f128317e56a9d2fimg9.jpg,Checks/check1/open-images-2666_044d7c6d11e6b493img8.jpg,Checks/check1/open-images-2880_159294646083f545img4.jpg,Checks/check1/open-images-609_2dc0baa993a2bd25img5.jpg,Checks/check1/open-images-1854_2b15616b4f1080e7img2.jpg,Checks/check1/open-images-1435_1b0ce31951048765img8.jpg,,,1,2022-06-15_08h04.55.275,annotation,2021.2.3,Win32,60.0060006,,
,,,,,,,,,,,,,,,,,0.521296353,-0.176388889,1,0,0,image_9,0,62,62,25,1,130,The girl is covering the left edge of the blue table and half of the purple animal's face.  The blue cap animal is holding someting green.,H,0,2,video-storytelling-videobirthday__amwPjAcoC8-shot14_1,Images/video-storytelling-videobirthday__amwPjAcoC8-shot14_1/img27.jpg,Images/video-storytelling-videobirthday__amwPjAcoC8-shot14_1/img30.jpg,Images/video-storytelling-videobirthday__amwPjAcoC8-shot14_1/img32.jpg,Images/video-storytelling-videobirthday__amwPjAcoC8-shot14_1/img35.jpg,Images/video-storytelling-videobirthday__amwPjAcoC8-shot14_1/img38.jpg,Images/video-storytelling-videobirthday__amwPjAcoC8-shot14_1/img41.jpg,Images/video-storytelling-videobirthday__amwPjAcoC8-shot14_1/img43.jpg,Images/video-storytelling-videobirthday__amwPjAcoC8-shot14_1/img45.jpg,Images/video-storytelling-videobirthday__amwPjAcoC8-shot14_1/img47.jpg,Images/video-storytelling-videobirthday__amwPjAcoC8-shot14_1/img51.jpg,1946,7,0,2022-06-15_08h04.55.275,annotation,2021.2.3,Win32,60.0060006,,
,,,,,,,,,,,,,,,,,,,,,,,,,,,,,,,,,,,,,,,,,,,,,,,2022-06-15_08h04.55.275,annotation,2021.2.3,Win32,60.0060006,space,38.0299
