mturk,key_resp_2.keys,key_resp_2.rt,key_resp_3.keys,key_resp_3.rt,mouse_2.x,mouse_2.y,mouse_2.leftButton,mouse_2.midButton,mouse_2.rightButton,mouse_2.clicked_name,key_resp_5.keys,key_resp_5.rt,key_resp.keys,key_resp.rt,key_resp_6.keys,key_resp_6.rt,mouse.x,mouse.y,mouse.leftButton,mouse.midButton,mouse.rightButton,mouse.clicked_name,trials.thisRepN,trials.thisTrialN,trials.thisN,trials.thisIndex,trials.ran,N,caption,class_caption,model_guessed,target_idx,image_set,img1,img2,img3,img4,img5,img6,img7,img8,img9,img10,Q_id,block,is_check,date,expName,psychopyVersion,OS,frameRate,key_resp_7.keys,key_resp_7.rt
2117299,space,2.4856,space,2.7149,0.278703704,0.101851852,1,0,0,ex4,space,3.0985,space,5.1832,space,0.8824,-0.5,0.138888889,1,0,0,image_0,0,0,0,0,1,330,Two people are in a red car. They are align almost vertically.,H,1,0,MSR-VTT-videoTestVideo_video9668-shot1_1,Images/MSR-VTT-videoTestVideo_video9668-shot1_1/img45.jpg,Images/MSR-VTT-videoTestVideo_video9668-shot1_1/img47.jpg,Images/MSR-VTT-videoTestVideo_video9668-shot1_1/img53.jpg,Images/MSR-VTT-videoTestVideo_video9668-shot1_1/img55.jpg,Images/MSR-VTT-videoTestVideo_video9668-shot1_1/img60.jpg,Images/MSR-VTT-videoTestVideo_video9668-shot1_1/img65.jpg,Images/MSR-VTT-videoTestVideo_video9668-shot1_1/img67.jpg,Images/MSR-VTT-videoTestVideo_video9668-shot1_1/img75.jpg,Images/MSR-VTT-videoTestVideo_video9668-shot1_1/img84.jpg,Images/MSR-VTT-videoTestVideo_video9668-shot1_1/img93.jpg,972,28,0,2022-06-15_18h08.35.612,annotation,2021.2.3,Win32,60.10699044,,
,,,,,,,,,,,,,,,,,0.467592593,-0.135185185,1,0,0,image_9,0,1,1,12,1,1945,A woman talking on her cell phone while driving.,M,0,6,video-storytelling-videocamping_1OzbiB1TIWI-shot9_1,Images/video-storytelling-videocamping_1OzbiB1TIWI-shot9_1/img95.jpg,Images/video-storytelling-videocamping_1OzbiB1TIWI-shot9_1/img106.jpg,Images/video-storytelling-videocamping_1OzbiB1TIWI-shot9_1/img119.jpg,Images/video-storytelling-videocamping_1OzbiB1TIWI-shot9_1/img127.jpg,Images/video-storytelling-videocamping_1OzbiB1TIWI-shot9_1/img137.jpg,Images/video-storytelling-videocamping_1OzbiB1TIWI-shot9_1/img155.jpg,Images/video-storytelling-videocamping_1OzbiB1TIWI-shot9_1/img164.jpg,Images/video-storytelling-videocamping_1OzbiB1TIWI-shot9_1/img167.jpg,Images/video-storytelling-videocamping_1OzbiB1TIWI-shot9_1/img171.jpg,Images/video-storytelling-videocamping_1OzbiB1TIWI-shot9_1/img176.jpg,216,28,0,2022-06-15_18h08.35.612,annotation,2021.2.3,Win32,60.10699044,,
,,,,,,,,,,,,,,,,,0.508333333,0.130555556,1,0,0,image_4,0,2,2,23,1,1893,A group of people jumping onto a dirt road.,M,1,9,video-storytelling-videocamping_1OzbiB1TIWI-shot14_4,Images/video-storytelling-videocamping_1OzbiB1TIWI-shot14_4/img745.jpg,Images/video-storytelling-videocamping_1OzbiB1TIWI-shot14_4/img748.jpg,Images/video-storytelling-videocamping_1OzbiB1TIWI-shot14_4/img758.jpg,Images/video-storytelling-videocamping_1OzbiB1TIWI-shot14_4/img767.jpg,Images/video-storytelling-videocamping_1OzbiB1TIWI-shot14_4/img808.jpg,Images/video-storytelling-videocamping_1OzbiB1TIWI-shot14_4/img815.jpg,Images/video-storytelling-videocamping_1OzbiB1TIWI-shot14_4/img825.jpg,Images/video-storytelling-videocamping_1OzbiB1TIWI-shot14_4/img835.jpg,Images/video-storytelling-videocamping_1OzbiB1TIWI-shot14_4/img842.jpg,Images/video-storytelling-videocamping_1OzbiB1TIWI-shot14_4/img845.jpg,1035,28,0,2022-06-15_18h08.35.612,annotation,2021.2.3,Win32,60.10699044,,
,,,,,,,,,,,,,,,,,-0.007407407,-0.123148148,1,0,0,image_7,0,3,3,18,1,30,The ball is high in the air with only black behind it. The number on the red jersey is not legible at all.,H,0,7,MSR-VTT-videoTestVideo_video8013-shot1_0,Images/MSR-VTT-videoTestVideo_video8013-shot1_0/img0.jpg,Images/MSR-VTT-videoTestVideo_video8013-shot1_0/img1.jpg,Images/MSR-VTT-videoTestVideo_video8013-shot1_0/img10.jpg,Images/MSR-VTT-videoTestVideo_video8013-shot1_0/img12.jpg,Images/MSR-VTT-videoTestVideo_video8013-shot1_0/img18.jpg,Images/MSR-VTT-videoTestVideo_video8013-shot1_0/img20.jpg,Images/MSR-VTT-videoTestVideo_video8013-shot1_0/img24.jpg,Images/MSR-VTT-videoTestVideo_video8013-shot1_0/img25.jpg,Images/MSR-VTT-videoTestVideo_video8013-shot1_0/img30.jpg,Images/MSR-VTT-videoTestVideo_video8013-shot1_0/img31.jpg,1089,28,0,2022-06-15_18h08.35.612,annotation,2021.2.3,Win32,60.10699044,,
,,,,,,,,,,,,,,,,,-0.02962963,-0.137962963,1,0,0,image_7,0,4,4,38,1,1943,A man and a woman standing next to each other.,M,1,6,MSR-VTT-videoTestVideo_video8842-shot1_0,Images/MSR-VTT-videoTestVideo_video8842-shot1_0/img0.jpg,Images/MSR-VTT-videoTestVideo_video8842-shot1_0/img3.jpg,Images/MSR-VTT-videoTestVideo_video8842-shot1_0/img5.jpg,Images/MSR-VTT-videoTestVideo_video8842-shot1_0/img9.jpg,Images/MSR-VTT-videoTestVideo_video8842-shot1_0/img17.jpg,Images/MSR-VTT-videoTestVideo_video8842-shot1_0/img22.jpg,Images/MSR-VTT-videoTestVideo_video8842-shot1_0/img29.jpg,Images/MSR-VTT-videoTestVideo_video8842-shot1_0/img35.jpg,Images/MSR-VTT-videoTestVideo_video8842-shot1_0/img37.jpg,Images/MSR-VTT-videoTestVideo_video8842-shot1_0/img42.jpg,2016,28,0,2022-06-15_18h08.35.612,annotation,2021.2.3,Win32,60.10699044,,
,,,,,,,,,,,,,,,,,0.519444444,-0.12962963,1,0,0,image_9,0,5,5,60,1,2,Green type writer with a red tape. ,H,,9,open-images-531_0dd4eb59d465a8be,Checks/check3/open-images-503_1ccd6fa641154ebbimg7.jpg,Checks/check3/open-images-1852_00faf52058ad28b8img4.jpg,Checks/check3/open-images-386_1b2e28d6d994603eimg1.jpg,Checks/check3/open-images-471_1121e9f97c200ac0img8.jpg,Checks/check3/open-images-1886_3db71eaddb618934img8.jpg,Checks/check3/open-images-1696_20a4ebf0c0f76b05img6.jpg,Checks/check3/open-images-2447_128483a48e1552f4img6.jpg,Checks/check3/open-images-2994_9965cbf8aa20bda0img2.jpg,Checks/check3/open-images-1068_03d63613107970b3img6.jpg,Checks/check3/open-images-531_0dd4eb59d465a8beimg9.jpg,,,1,2022-06-15_18h08.35.612,annotation,2021.2.3,Win32,60.10699044,,
,,,,,,,,,,,,,,,,,-0.008333333,-0.139814815,1,0,0,image_7,0,6,6,34,1,699,The two men with glasses are looking in the direction of the man to their left,H,0,7,MSR-VTT-videoTestVideo_video9745-shot1_2,Images/MSR-VTT-videoTestVideo_video9745-shot1_2/img180.jpg,Images/MSR-VTT-videoTestVideo_video9745-shot1_2/img188.jpg,Images/MSR-VTT-videoTestVideo_video9745-shot1_2/img194.jpg,Images/MSR-VTT-videoTestVideo_video9745-shot1_2/img200.jpg,Images/MSR-VTT-videoTestVideo_video9745-shot1_2/img207.jpg,Images/MSR-VTT-videoTestVideo_video9745-shot1_2/img212.jpg,Images/MSR-VTT-videoTestVideo_video9745-shot1_2/img219.jpg,Images/MSR-VTT-videoTestVideo_video9745-shot1_2/img230.jpg,Images/MSR-VTT-videoTestVideo_video9745-shot1_2/img237.jpg,Images/MSR-VTT-videoTestVideo_video9745-shot1_2/img241.jpg,1499,28,0,2022-06-15_18h08.35.612,annotation,2021.2.3,Win32,60.10699044,,
,,,,,,,,,,,,,,,,,-0.257407407,-0.137037037,1,0,0,image_6,0,7,7,24,1,1345,A woman laying on top of a bed in a room.,M,0,6,MSR-VTT-videoTestVideo_video7057-shot1_11,Images/MSR-VTT-videoTestVideo_video7057-shot1_11/img273.jpg,Images/MSR-VTT-videoTestVideo_video7057-shot1_11/img276.jpg,Images/MSR-VTT-videoTestVideo_video7057-shot1_11/img279.jpg,Images/MSR-VTT-videoTestVideo_video7057-shot1_11/img281.jpg,Images/MSR-VTT-videoTestVideo_video7057-shot1_11/img285.jpg,Images/MSR-VTT-videoTestVideo_video7057-shot1_11/img290.jpg,Images/MSR-VTT-videoTestVideo_video7057-shot1_11/img294.jpg,Images/MSR-VTT-videoTestVideo_video7057-shot1_11/img295.jpg,Images/MSR-VTT-videoTestVideo_video7057-shot1_11/img298.jpg,Images/MSR-VTT-videoTestVideo_video7057-shot1_11/img299.jpg,1899,28,0,2022-06-15_18h08.35.612,annotation,2021.2.3,Win32,60.10699044,,
,,,,,,,,,,,,,,,,,-0.441666667,0.142592593,1,0,0,image_0,0,8,8,44,1,1093,A young girl wearing a hat and riding a skateboard.,M,0,8,MSR-VTT-videoTestVideo_video7542-shot9_0,Images/MSR-VTT-videoTestVideo_video7542-shot9_0/img0.jpg,Images/MSR-VTT-videoTestVideo_video7542-shot9_0/img5.jpg,Images/MSR-VTT-videoTestVideo_video7542-shot9_0/img11.jpg,Images/MSR-VTT-videoTestVideo_video7542-shot9_0/img16.jpg,Images/MSR-VTT-videoTestVideo_video7542-shot9_0/img32.jpg,Images/MSR-VTT-videoTestVideo_video7542-shot9_0/img45.jpg,Images/MSR-VTT-videoTestVideo_video7542-shot9_0/img48.jpg,Images/MSR-VTT-videoTestVideo_video7542-shot9_0/img52.jpg,Images/MSR-VTT-videoTestVideo_video7542-shot9_0/img65.jpg,Images/MSR-VTT-videoTestVideo_video7542-shot9_0/img70.jpg,55,28,0,2022-06-15_18h08.35.612,annotation,2021.2.3,Win32,60.10699044,,
,,,,,,,,,,,,,,,,,-0.225925926,-0.125925926,1,0,0,image_6,0,9,9,41,1,1967,A woman laying on top of a bed in a room.,M,0,5,MSR-VTT-videoTestVideo_video7057-shot1_11,Images/MSR-VTT-videoTestVideo_video7057-shot1_11/img273.jpg,Images/MSR-VTT-videoTestVideo_video7057-shot1_11/img276.jpg,Images/MSR-VTT-videoTestVideo_video7057-shot1_11/img279.jpg,Images/MSR-VTT-videoTestVideo_video7057-shot1_11/img281.jpg,Images/MSR-VTT-videoTestVideo_video7057-shot1_11/img285.jpg,Images/MSR-VTT-videoTestVideo_video7057-shot1_11/img290.jpg,Images/MSR-VTT-videoTestVideo_video7057-shot1_11/img294.jpg,Images/MSR-VTT-videoTestVideo_video7057-shot1_11/img295.jpg,Images/MSR-VTT-videoTestVideo_video7057-shot1_11/img298.jpg,Images/MSR-VTT-videoTestVideo_video7057-shot1_11/img299.jpg,873,28,0,2022-06-15_18h08.35.612,annotation,2021.2.3,Win32,60.10699044,,
,,,,,,,,,,,,,,,,,0.262962963,-0.133333333,1,0,0,image_8,0,10,10,56,1,762,The woman on the right has just started pulling the gift out of the wrapping but you can still see her entire face. ,H,0,8,video-storytelling-videobirthday_fwpYnUDbusw-shot8_3,Images/video-storytelling-videobirthday_fwpYnUDbusw-shot8_3/img170.jpg,Images/video-storytelling-videobirthday_fwpYnUDbusw-shot8_3/img175.jpg,Images/video-storytelling-videobirthday_fwpYnUDbusw-shot8_3/img180.jpg,Images/video-storytelling-videobirthday_fwpYnUDbusw-shot8_3/img188.jpg,Images/video-storytelling-videobirthday_fwpYnUDbusw-shot8_3/img201.jpg,Images/video-storytelling-videobirthday_fwpYnUDbusw-shot8_3/img206.jpg,Images/video-storytelling-videobirthday_fwpYnUDbusw-shot8_3/img217.jpg,Images/video-storytelling-videobirthday_fwpYnUDbusw-shot8_3/img229.jpg,Images/video-storytelling-videobirthday_fwpYnUDbusw-shot8_3/img234.jpg,Images/video-storytelling-videobirthday_fwpYnUDbusw-shot8_3/img239.jpg,1774,28,0,2022-06-15_18h08.35.612,annotation,2021.2.3,Win32,60.10699044,,
,,,,,,,,,,,,,,,,,0.009259259,-0.14537037,1,0,0,image_7,0,11,11,51,1,1144,A picture of a giraffe with its back to the camera.,M,0,6,MSR-VTT-videoTestVideo_video8432-shot4_0,Images/MSR-VTT-videoTestVideo_video8432-shot4_0/img0.jpg,Images/MSR-VTT-videoTestVideo_video8432-shot4_0/img67.jpg,Images/MSR-VTT-videoTestVideo_video8432-shot4_0/img71.jpg,Images/MSR-VTT-videoTestVideo_video8432-shot4_0/img78.jpg,Images/MSR-VTT-videoTestVideo_video8432-shot4_0/img85.jpg,Images/MSR-VTT-videoTestVideo_video8432-shot4_0/img87.jpg,Images/MSR-VTT-videoTestVideo_video8432-shot4_0/img96.jpg,Images/MSR-VTT-videoTestVideo_video8432-shot4_0/img101.jpg,Images/MSR-VTT-videoTestVideo_video8432-shot4_0/img117.jpg,Images/MSR-VTT-videoTestVideo_video8432-shot4_0/img121.jpg,1586,28,0,2022-06-15_18h08.35.612,annotation,2021.2.3,Win32,60.10699044,,
,,,,,,,,,,,,,,,,,0.507407407,0.12037037,1,0,0,image_4,0,12,12,53,1,67,You can still barely see the white on the horse's front left leg.,H,0,5,MSR-VTT-videoTestVideo_video9311-shot1_0,Images/MSR-VTT-videoTestVideo_video9311-shot1_0/img0.jpg,Images/MSR-VTT-videoTestVideo_video9311-shot1_0/img7.jpg,Images/MSR-VTT-videoTestVideo_video9311-shot1_0/img18.jpg,Images/MSR-VTT-videoTestVideo_video9311-shot1_0/img38.jpg,Images/MSR-VTT-videoTestVideo_video9311-shot1_0/img64.jpg,Images/MSR-VTT-videoTestVideo_video9311-shot1_0/img65.jpg,Images/MSR-VTT-videoTestVideo_video9311-shot1_0/img75.jpg,Images/MSR-VTT-videoTestVideo_video9311-shot1_0/img82.jpg,Images/MSR-VTT-videoTestVideo_video9311-shot1_0/img87.jpg,Images/MSR-VTT-videoTestVideo_video9311-shot1_0/img90.jpg,272,28,0,2022-06-15_18h08.35.612,annotation,2021.2.3,Win32,60.10699044,,
,,,,,,,,,,,,,,,,,-0.007407407,-0.130555556,1,0,0,image_7,0,13,13,36,1,1303,A close up of a musician playing a guitar.,M,0,6,MSR-VTT-videoTestVideo_video9947-shot2_0,Images/MSR-VTT-videoTestVideo_video9947-shot2_0/img0.jpg,Images/MSR-VTT-videoTestVideo_video9947-shot2_0/img11.jpg,Images/MSR-VTT-videoTestVideo_video9947-shot2_0/img22.jpg,Images/MSR-VTT-videoTestVideo_video9947-shot2_0/img55.jpg,Images/MSR-VTT-videoTestVideo_video9947-shot2_0/img78.jpg,Images/MSR-VTT-videoTestVideo_video9947-shot2_0/img87.jpg,Images/MSR-VTT-videoTestVideo_video9947-shot2_0/img98.jpg,Images/MSR-VTT-videoTestVideo_video9947-shot2_0/img123.jpg,Images/MSR-VTT-videoTestVideo_video9947-shot2_0/img125.jpg,Images/MSR-VTT-videoTestVideo_video9947-shot2_0/img148.jpg,600,28,0,2022-06-15_18h08.35.612,annotation,2021.2.3,Win32,60.10699044,,
,,,,,,,,,,,,,,,,,-0.208333333,0.139814815,1,0,0,image_1,0,14,14,28,1,1172,A man standing in the water holding a surfboard.,M,1,1,MSR-VTT-videoTestVideo_video9088-shot1_1,Images/MSR-VTT-videoTestVideo_video9088-shot1_1/img209.jpg,Images/MSR-VTT-videoTestVideo_video9088-shot1_1/img219.jpg,Images/MSR-VTT-videoTestVideo_video9088-shot1_1/img278.jpg,Images/MSR-VTT-videoTestVideo_video9088-shot1_1/img320.jpg,Images/MSR-VTT-videoTestVideo_video9088-shot1_1/img324.jpg,Images/MSR-VTT-videoTestVideo_video9088-shot1_1/img327.jpg,Images/MSR-VTT-videoTestVideo_video9088-shot1_1/img329.jpg,Images/MSR-VTT-videoTestVideo_video9088-shot1_1/img349.jpg,Images/MSR-VTT-videoTestVideo_video9088-shot1_1/img357.jpg,Images/MSR-VTT-videoTestVideo_video9088-shot1_1/img395.jpg,307,28,0,2022-06-15_18h08.35.612,annotation,2021.2.3,Win32,60.10699044,,
,,,,,,,,,,,,,,,,,-0.023148148,0.116666667,1,0,0,image_2,0,15,15,49,1,18,The girl is looking very sad at the bow. The bow is pointed to the left and almost towards the camera.,H,0,2,MSR-VTT-videoTestVideo_video7170-shot3_0,Images/MSR-VTT-videoTestVideo_video7170-shot3_0/img0.jpg,Images/MSR-VTT-videoTestVideo_video7170-shot3_0/img6.jpg,Images/MSR-VTT-videoTestVideo_video7170-shot3_0/img12.jpg,Images/MSR-VTT-videoTestVideo_video7170-shot3_0/img15.jpg,Images/MSR-VTT-videoTestVideo_video7170-shot3_0/img20.jpg,Images/MSR-VTT-videoTestVideo_video7170-shot3_0/img27.jpg,Images/MSR-VTT-videoTestVideo_video7170-shot3_0/img43.jpg,Images/MSR-VTT-videoTestVideo_video7170-shot3_0/img52.jpg,Images/MSR-VTT-videoTestVideo_video7170-shot3_0/img56.jpg,Images/MSR-VTT-videoTestVideo_video7170-shot3_0/img64.jpg,1305,28,0,2022-06-15_18h08.35.612,annotation,2021.2.3,Win32,60.10699044,,
,,,,,,,,,,,,,,,,,-0.274074074,0.140740741,1,0,0,image_1,0,16,16,62,1,4,A penguin holding a piece of paper with text on it. ,H,,1,open-images-2521_074d6af730ed17a6,Checks/check5/open-images-509_4d8bd994cb8c6eaeimg0.jpg,Checks/check5/open-images-2521_074d6af730ed17a6img1.jpg,Checks/check5/open-images-1365_a00a5fde334ae45aimg4.jpg,Checks/check5/open-images-1602_44092afdeab39e73img6.jpg,Checks/check5/open-images-1032_059f3cdfb85ee0ceimg3.jpg,Checks/check5/open-images-727_25b77fff36adba66img2.jpg,Checks/check5/open-images-2208_0fb92b9978d98575img2.jpg,Checks/check5/open-images-1305_05769e6abb16fdc8img9.jpg,Checks/check5/open-images-2676_052dbf7b4899430bimg1.jpg,Checks/check5/open-images-2569_1e81d79bb796a2dbimg7.jpg,,,1,2022-06-15_18h08.35.612,annotation,2021.2.3,Win32,60.10699044,,
,,,,,,,,,,,,,,,,,0.013888889,-0.125925926,1,0,0,image_7,0,17,17,29,1,570,There are character icons over the minecarts. The green Luigi icon has stars around it.,H,0,7,MSR-VTT-videoTestVideo_video8896-shot1_1,Images/MSR-VTT-videoTestVideo_video8896-shot1_1/img96.jpg,Images/MSR-VTT-videoTestVideo_video8896-shot1_1/img109.jpg,Images/MSR-VTT-videoTestVideo_video8896-shot1_1/img129.jpg,Images/MSR-VTT-videoTestVideo_video8896-shot1_1/img136.jpg,Images/MSR-VTT-videoTestVideo_video8896-shot1_1/img146.jpg,Images/MSR-VTT-videoTestVideo_video8896-shot1_1/img198.jpg,Images/MSR-VTT-videoTestVideo_video8896-shot1_1/img231.jpg,Images/MSR-VTT-videoTestVideo_video8896-shot1_1/img272.jpg,Images/MSR-VTT-videoTestVideo_video8896-shot1_1/img314.jpg,Images/MSR-VTT-videoTestVideo_video8896-shot1_1/img367.jpg,734,28,0,2022-06-15_18h08.35.612,annotation,2021.2.3,Win32,60.10699044,,
,,,,,,,,,,,,,,,,,0.025925926,0.181481481,1,0,0,image_2,0,18,18,25,1,493,The text at the bottom of the picture starts to appear. You can't see the top of the man's head in red.,H,0,2,MSR-VTT-videoTestVideo_video9248-shot0_1,Images/MSR-VTT-videoTestVideo_video9248-shot0_1/img62.jpg,Images/MSR-VTT-videoTestVideo_video9248-shot0_1/img71.jpg,Images/MSR-VTT-videoTestVideo_video9248-shot0_1/img88.jpg,Images/MSR-VTT-videoTestVideo_video9248-shot0_1/img92.jpg,Images/MSR-VTT-videoTestVideo_video9248-shot0_1/img98.jpg,Images/MSR-VTT-videoTestVideo_video9248-shot0_1/img125.jpg,Images/MSR-VTT-videoTestVideo_video9248-shot0_1/img147.jpg,Images/MSR-VTT-videoTestVideo_video9248-shot0_1/img153.jpg,Images/MSR-VTT-videoTestVideo_video9248-shot0_1/img163.jpg,Images/MSR-VTT-videoTestVideo_video9248-shot0_1/img193.jpg,1634,28,0,2022-06-15_18h08.35.612,annotation,2021.2.3,Win32,60.10699044,,
,,,,,,,,,,,,,,,,,0.014814815,0.189814815,1,0,0,image_2,0,19,19,61,1,3,A grey elephant with golden leaves on it. ,H,,2,open-images-1745_0ed62fe71809b2f5,Checks/check4/open-images-2609_3f72daeb23764ecfimg6.jpg,Checks/check4/open-images-1928_60679e2899870e08img1.jpg,Checks/check4/open-images-1745_0ed62fe71809b2f5img2.jpg,Checks/check4/open-images-1811_9ae6351c7f7565edimg0.jpg,Checks/check4/open-images-1721_6f04da11945ea492img3.jpg,Checks/check4/open-images-1907_5f9be3e4ea5e22c7img2.jpg,Checks/check4/open-images-580_0ddffb9c25141999img1.jpg,Checks/check4/open-images-2924_0645dcbcf998fed9img3.jpg,Checks/check4/open-images-869_856ecbcb5faf76e3img8.jpg,Checks/check4/open-images-250_02039517e63a91fbimg1.jpg,,,1,2022-06-15_18h08.35.612,annotation,2021.2.3,Win32,60.10699044,,
,,,,,,,,,,,,,,,,,0.468518519,0.175925926,1,0,0,image_4,0,20,20,33,1,111,About 80 percent of the pom-pom on the hat is visible.,H,0,4,video-storytelling-videochristmas_5RR_sRzKODA-shot23_11,Images/video-storytelling-videochristmas_5RR_sRzKODA-shot23_11/img416.jpg,Images/video-storytelling-videochristmas_5RR_sRzKODA-shot23_11/img419.jpg,Images/video-storytelling-videochristmas_5RR_sRzKODA-shot23_11/img423.jpg,Images/video-storytelling-videochristmas_5RR_sRzKODA-shot23_11/img425.jpg,Images/video-storytelling-videochristmas_5RR_sRzKODA-shot23_11/img427.jpg,Images/video-storytelling-videochristmas_5RR_sRzKODA-shot23_11/img429.jpg,Images/video-storytelling-videochristmas_5RR_sRzKODA-shot23_11/img433.jpg,Images/video-storytelling-videochristmas_5RR_sRzKODA-shot23_11/img436.jpg,Images/video-storytelling-videochristmas_5RR_sRzKODA-shot23_11/img443.jpg,Images/video-storytelling-videochristmas_5RR_sRzKODA-shot23_11/img444.jpg,1548,28,0,2022-06-15_18h08.35.612,annotation,2021.2.3,Win32,60.10699044,,
,,,,,,,,,,,,,,,,,0.261111111,0.137037037,1,0,0,image_3,0,21,21,19,1,248,"Yellow circle on ground, girl in pink is crouching to jump out of it. Girl in white behind her is visible",H,0,2,MSR-VTT-videoTestVideo_video9044-shot0_1,Images/MSR-VTT-videoTestVideo_video9044-shot0_1/img57.jpg,Images/MSR-VTT-videoTestVideo_video9044-shot0_1/img62.jpg,Images/MSR-VTT-videoTestVideo_video9044-shot0_1/img72.jpg,Images/MSR-VTT-videoTestVideo_video9044-shot0_1/img74.jpg,Images/MSR-VTT-videoTestVideo_video9044-shot0_1/img78.jpg,Images/MSR-VTT-videoTestVideo_video9044-shot0_1/img83.jpg,Images/MSR-VTT-videoTestVideo_video9044-shot0_1/img85.jpg,Images/MSR-VTT-videoTestVideo_video9044-shot0_1/img88.jpg,Images/MSR-VTT-videoTestVideo_video9044-shot0_1/img93.jpg,Images/MSR-VTT-videoTestVideo_video9044-shot0_1/img97.jpg,1430,28,0,2022-06-15_18h08.35.612,annotation,2021.2.3,Win32,60.10699044,,
,,,,,,,,,,,,,,,,,0.538888889,0.133333333,1,0,0,image_4,0,22,22,9,1,1865,A man standing in the driver's seat of a motorized vehicle.,M,0,5,MSR-VTT-videoTestVideo_video9446-shot1_0,Images/MSR-VTT-videoTestVideo_video9446-shot1_0/img0.jpg,Images/MSR-VTT-videoTestVideo_video9446-shot1_0/img4.jpg,Images/MSR-VTT-videoTestVideo_video9446-shot1_0/img12.jpg,Images/MSR-VTT-videoTestVideo_video9446-shot1_0/img17.jpg,Images/MSR-VTT-videoTestVideo_video9446-shot1_0/img19.jpg,Images/MSR-VTT-videoTestVideo_video9446-shot1_0/img26.jpg,Images/MSR-VTT-videoTestVideo_video9446-shot1_0/img36.jpg,Images/MSR-VTT-videoTestVideo_video9446-shot1_0/img54.jpg,Images/MSR-VTT-videoTestVideo_video9446-shot1_0/img100.jpg,Images/MSR-VTT-videoTestVideo_video9446-shot1_0/img101.jpg,439,28,0,2022-06-15_18h08.35.612,annotation,2021.2.3,Win32,60.10699044,,
,,,,,,,,,,,,,,,,,-0.472222222,0.150925926,1,0,0,image_0,0,23,23,3,1,1437,A woman standing in front of a table filled with food.,M,0,5,video-storytelling-videobirthday_fwpYnUDbusw-shot8_6,Images/video-storytelling-videobirthday_fwpYnUDbusw-shot8_6/img348.jpg,Images/video-storytelling-videobirthday_fwpYnUDbusw-shot8_6/img351.jpg,Images/video-storytelling-videobirthday_fwpYnUDbusw-shot8_6/img360.jpg,Images/video-storytelling-videobirthday_fwpYnUDbusw-shot8_6/img368.jpg,Images/video-storytelling-videobirthday_fwpYnUDbusw-shot8_6/img374.jpg,Images/video-storytelling-videobirthday_fwpYnUDbusw-shot8_6/img382.jpg,Images/video-storytelling-videobirthday_fwpYnUDbusw-shot8_6/img388.jpg,Images/video-storytelling-videobirthday_fwpYnUDbusw-shot8_6/img397.jpg,Images/video-storytelling-videobirthday_fwpYnUDbusw-shot8_6/img401.jpg,Images/video-storytelling-videobirthday_fwpYnUDbusw-shot8_6/img405.jpg,1906,28,0,2022-06-15_18h08.35.612,annotation,2021.2.3,Win32,60.10699044,,
,,,,,,,,,,,,,,,,,0.559259259,-0.131481481,1,0,0,image_9,0,24,24,50,1,2087,A woman holding a cell phone in her hand.,M,0,4,MSR-VTT-videoTestVideo_video9583-shot1_0,Images/MSR-VTT-videoTestVideo_video9583-shot1_0/img0.jpg,Images/MSR-VTT-videoTestVideo_video9583-shot1_0/img11.jpg,Images/MSR-VTT-videoTestVideo_video9583-shot1_0/img20.jpg,Images/MSR-VTT-videoTestVideo_video9583-shot1_0/img36.jpg,Images/MSR-VTT-videoTestVideo_video9583-shot1_0/img54.jpg,Images/MSR-VTT-videoTestVideo_video9583-shot1_0/img101.jpg,Images/MSR-VTT-videoTestVideo_video9583-shot1_0/img166.jpg,Images/MSR-VTT-videoTestVideo_video9583-shot1_0/img191.jpg,Images/MSR-VTT-videoTestVideo_video9583-shot1_0/img226.jpg,Images/MSR-VTT-videoTestVideo_video9583-shot1_0/img240.jpg,906,28,0,2022-06-15_18h08.35.612,annotation,2021.2.3,Win32,60.10699044,,
,,,,,,,,,,,,,,,,,-0.45,0.144444444,1,0,0,image_0,0,25,25,47,1,2009,A man standing on top of a stage with a microphone.,M,0,0,MSR-VTT-videoTestVideo_video7663-shot2_0,Images/MSR-VTT-videoTestVideo_video7663-shot2_0/img0.jpg,Images/MSR-VTT-videoTestVideo_video7663-shot2_0/img6.jpg,Images/MSR-VTT-videoTestVideo_video7663-shot2_0/img11.jpg,Images/MSR-VTT-videoTestVideo_video7663-shot2_0/img18.jpg,Images/MSR-VTT-videoTestVideo_video7663-shot2_0/img24.jpg,Images/MSR-VTT-videoTestVideo_video7663-shot2_0/img28.jpg,Images/MSR-VTT-videoTestVideo_video7663-shot2_0/img31.jpg,Images/MSR-VTT-videoTestVideo_video7663-shot2_0/img34.jpg,Images/MSR-VTT-videoTestVideo_video7663-shot2_0/img50.jpg,Images/MSR-VTT-videoTestVideo_video7663-shot2_0/img56.jpg,1283,28,0,2022-06-15_18h08.35.612,annotation,2021.2.3,Win32,60.10699044,,
,,,,,,,,,,,,,,,,,0.276851852,0.212962963,1,0,0,image_3,0,26,26,37,1,452,A man looking back at the camera with his mouth mostly closed.  You can barely see a couple of the man's fingers on his hand.  The top of his head is cut off at the top of the image. ,H,1,3,video-storytelling-videocamping_dBXYM3dQTSo-shot72_5,Images/video-storytelling-videocamping_dBXYM3dQTSo-shot72_5/img301.jpg,Images/video-storytelling-videocamping_dBXYM3dQTSo-shot72_5/img306.jpg,Images/video-storytelling-videocamping_dBXYM3dQTSo-shot72_5/img308.jpg,Images/video-storytelling-videocamping_dBXYM3dQTSo-shot72_5/img310.jpg,Images/video-storytelling-videocamping_dBXYM3dQTSo-shot72_5/img312.jpg,Images/video-storytelling-videocamping_dBXYM3dQTSo-shot72_5/img317.jpg,Images/video-storytelling-videocamping_dBXYM3dQTSo-shot72_5/img322.jpg,Images/video-storytelling-videocamping_dBXYM3dQTSo-shot72_5/img326.jpg,Images/video-storytelling-videocamping_dBXYM3dQTSo-shot72_5/img329.jpg,Images/video-storytelling-videocamping_dBXYM3dQTSo-shot72_5/img335.jpg,1266,28,0,2022-06-15_18h08.35.612,annotation,2021.2.3,Win32,60.10699044,,
,,,,,,,,,,,,,,,,,-0.021296296,0.210185185,1,0,0,image_2,0,27,27,45,1,225,The red end of the text icon touches the inside edge of the spoon.,H,0,2,MSR-VTT-videoTestVideo_video7038-shot6_0,Images/MSR-VTT-videoTestVideo_video7038-shot6_0/img0.jpg,Images/MSR-VTT-videoTestVideo_video7038-shot6_0/img2.jpg,Images/MSR-VTT-videoTestVideo_video7038-shot6_0/img15.jpg,Images/MSR-VTT-videoTestVideo_video7038-shot6_0/img41.jpg,Images/MSR-VTT-videoTestVideo_video7038-shot6_0/img52.jpg,Images/MSR-VTT-videoTestVideo_video7038-shot6_0/img55.jpg,Images/MSR-VTT-videoTestVideo_video7038-shot6_0/img58.jpg,Images/MSR-VTT-videoTestVideo_video7038-shot6_0/img62.jpg,Images/MSR-VTT-videoTestVideo_video7038-shot6_0/img63.jpg,Images/MSR-VTT-videoTestVideo_video7038-shot6_0/img80.jpg,674,28,0,2022-06-15_18h08.35.612,annotation,2021.2.3,Win32,60.10699044,,
,,,,,,,,,,,,,,,,,-0.24537037,0.134259259,1,0,0,image_1,0,28,28,11,1,979,The white ghost character with a black eye is in back of the 2nd word of blue text at the bottom. ,H,0,1,MSR-VTT-videoTestVideo_video8931-shot1_1,Images/MSR-VTT-videoTestVideo_video8931-shot1_1/img276.jpg,Images/MSR-VTT-videoTestVideo_video8931-shot1_1/img291.jpg,Images/MSR-VTT-videoTestVideo_video8931-shot1_1/img300.jpg,Images/MSR-VTT-videoTestVideo_video8931-shot1_1/img330.jpg,Images/MSR-VTT-videoTestVideo_video8931-shot1_1/img367.jpg,Images/MSR-VTT-videoTestVideo_video8931-shot1_1/img396.jpg,Images/MSR-VTT-videoTestVideo_video8931-shot1_1/img417.jpg,Images/MSR-VTT-videoTestVideo_video8931-shot1_1/img422.jpg,Images/MSR-VTT-videoTestVideo_video8931-shot1_1/img442.jpg,Images/MSR-VTT-videoTestVideo_video8931-shot1_1/img494.jpg,450,28,0,2022-06-15_18h08.35.612,annotation,2021.2.3,Win32,60.10699044,,
,,,,,,,,,,,,,,,,,0.537962963,0.149074074,1,0,0,image_4,0,29,29,57,1,78,There is picture overlay with the first picture having slightly more visibility than the second. ,H,1,4,MSR-VTT-videoTestVideo_video7566-shot2_1,Images/MSR-VTT-videoTestVideo_video7566-shot2_1/img87.jpg,Images/MSR-VTT-videoTestVideo_video7566-shot2_1/img96.jpg,Images/MSR-VTT-videoTestVideo_video7566-shot2_1/img104.jpg,Images/MSR-VTT-videoTestVideo_video7566-shot2_1/img106.jpg,Images/MSR-VTT-videoTestVideo_video7566-shot2_1/img109.jpg,Images/MSR-VTT-videoTestVideo_video7566-shot2_1/img112.jpg,Images/MSR-VTT-videoTestVideo_video7566-shot2_1/img116.jpg,Images/MSR-VTT-videoTestVideo_video7566-shot2_1/img118.jpg,Images/MSR-VTT-videoTestVideo_video7566-shot2_1/img121.jpg,Images/MSR-VTT-videoTestVideo_video7566-shot2_1/img126.jpg,621,28,0,2022-06-15_18h08.35.612,annotation,2021.2.3,Win32,60.10699044,,
,,,,,,,,,,,,,,,,,0.293518519,0.152777778,1,0,0,image_3,0,30,30,26,1,1027,The person's right hand is over near their left.  The right pointer finger is pointing at the other hand. ,H,0,3,MSR-VTT-videoTestVideo_video9564-shot1_0,Images/MSR-VTT-videoTestVideo_video9564-shot1_0/img0.jpg,Images/MSR-VTT-videoTestVideo_video9564-shot1_0/img7.jpg,Images/MSR-VTT-videoTestVideo_video9564-shot1_0/img9.jpg,Images/MSR-VTT-videoTestVideo_video9564-shot1_0/img14.jpg,Images/MSR-VTT-videoTestVideo_video9564-shot1_0/img36.jpg,Images/MSR-VTT-videoTestVideo_video9564-shot1_0/img59.jpg,Images/MSR-VTT-videoTestVideo_video9564-shot1_0/img78.jpg,Images/MSR-VTT-videoTestVideo_video9564-shot1_0/img83.jpg,Images/MSR-VTT-videoTestVideo_video9564-shot1_0/img85.jpg,Images/MSR-VTT-videoTestVideo_video9564-shot1_0/img112.jpg,317,28,0,2022-06-15_18h08.35.612,annotation,2021.2.3,Win32,60.10699044,,
,,,,,,,,,,,,,,,,,0.176851852,-0.063888889,1,0,0,image_8,0,31,31,4,1,1870,A photo of a person riding a motorbike on a road.,M,0,4,MSR-VTT-videoTestVideo_video8931-shot1_0,Images/MSR-VTT-videoTestVideo_video8931-shot1_0/img22.jpg,Images/MSR-VTT-videoTestVideo_video8931-shot1_0/img38.jpg,Images/MSR-VTT-videoTestVideo_video8931-shot1_0/img64.jpg,Images/MSR-VTT-videoTestVideo_video8931-shot1_0/img117.jpg,Images/MSR-VTT-videoTestVideo_video8931-shot1_0/img130.jpg,Images/MSR-VTT-videoTestVideo_video8931-shot1_0/img223.jpg,Images/MSR-VTT-videoTestVideo_video8931-shot1_0/img247.jpg,Images/MSR-VTT-videoTestVideo_video8931-shot1_0/img249.jpg,Images/MSR-VTT-videoTestVideo_video8931-shot1_0/img263.jpg,Images/MSR-VTT-videoTestVideo_video8931-shot1_0/img275.jpg,1060,28,0,2022-06-15_18h08.35.612,annotation,2021.2.3,Win32,60.10699044,,
,,,,,,,,,,,,,,,,,0.04537037,-0.137037037,1,0,0,image_7,0,32,32,55,1,1594,A group of women standing next to each other on a beach.,M,0,6,video-storytelling-videocamping_1OzbiB1TIWI-shot7_10,Images/video-storytelling-videocamping_1OzbiB1TIWI-shot7_10/img646.jpg,Images/video-storytelling-videocamping_1OzbiB1TIWI-shot7_10/img654.jpg,Images/video-storytelling-videocamping_1OzbiB1TIWI-shot7_10/img656.jpg,Images/video-storytelling-videocamping_1OzbiB1TIWI-shot7_10/img661.jpg,Images/video-storytelling-videocamping_1OzbiB1TIWI-shot7_10/img675.jpg,Images/video-storytelling-videocamping_1OzbiB1TIWI-shot7_10/img681.jpg,Images/video-storytelling-videocamping_1OzbiB1TIWI-shot7_10/img682.jpg,Images/video-storytelling-videocamping_1OzbiB1TIWI-shot7_10/img683.jpg,Images/video-storytelling-videocamping_1OzbiB1TIWI-shot7_10/img685.jpg,Images/video-storytelling-videocamping_1OzbiB1TIWI-shot7_10/img688.jpg,1739,28,0,2022-06-15_18h08.35.612,annotation,2021.2.3,Win32,60.10699044,,
,,,,,,,,,,,,,,,,,-0.489814815,0.15462963,1,0,0,image_0,0,33,33,42,1,1902,A person is holding a kite in their hand.,M,1,8,MSR-VTT-videoTestVideo_video8212-shot1_3,Images/MSR-VTT-videoTestVideo_video8212-shot1_3/img201.jpg,Images/MSR-VTT-videoTestVideo_video8212-shot1_3/img206.jpg,Images/MSR-VTT-videoTestVideo_video8212-shot1_3/img253.jpg,Images/MSR-VTT-videoTestVideo_video8212-shot1_3/img259.jpg,Images/MSR-VTT-videoTestVideo_video8212-shot1_3/img261.jpg,Images/MSR-VTT-videoTestVideo_video8212-shot1_3/img264.jpg,Images/MSR-VTT-videoTestVideo_video8212-shot1_3/img267.jpg,Images/MSR-VTT-videoTestVideo_video8212-shot1_3/img268.jpg,Images/MSR-VTT-videoTestVideo_video8212-shot1_3/img270.jpg,Images/MSR-VTT-videoTestVideo_video8212-shot1_3/img273.jpg,899,28,0,2022-06-15_18h08.35.612,annotation,2021.2.3,Win32,60.10699044,,
,,,,,,,,,,,,,,,,,-0.475925926,-0.123148148,1,0,0,image_5,0,34,34,52,1,1049,A picture of a person holding a bird in his hand.,M,0,7,MSR-VTT-videoTestVideo_video8282-shot0_0,Images/MSR-VTT-videoTestVideo_video8282-shot0_0/img0.jpg,Images/MSR-VTT-videoTestVideo_video8282-shot0_0/img4.jpg,Images/MSR-VTT-videoTestVideo_video8282-shot0_0/img7.jpg,Images/MSR-VTT-videoTestVideo_video8282-shot0_0/img10.jpg,Images/MSR-VTT-videoTestVideo_video8282-shot0_0/img15.jpg,Images/MSR-VTT-videoTestVideo_video8282-shot0_0/img18.jpg,Images/MSR-VTT-videoTestVideo_video8282-shot0_0/img20.jpg,Images/MSR-VTT-videoTestVideo_video8282-shot0_0/img21.jpg,Images/MSR-VTT-videoTestVideo_video8282-shot0_0/img24.jpg,Images/MSR-VTT-videoTestVideo_video8282-shot0_0/img27.jpg,1555,28,0,2022-06-15_18h08.35.612,annotation,2021.2.3,Win32,60.10699044,,
,,,,,,,,,,,,,,,,,0.001851852,0.171296296,1,0,0,image_2,0,35,35,58,1,0,Pair of black gloves,H,,2,open-images-510_3a241cb30d6e5319,Checks/check1/open-images-225_1442c0d0ef23d58bimg3.jpg,Checks/check1/open-images-2759_3a42708fe77398b7img8.jpg,Checks/check1/open-images-510_3a241cb30d6e5319img2.jpg,Checks/check1/open-images-2209_02c98146fb93ff17img1.jpg,Checks/check1/open-images-1553_0f128317e56a9d2fimg9.jpg,Checks/check1/open-images-2666_044d7c6d11e6b493img8.jpg,Checks/check1/open-images-2880_159294646083f545img4.jpg,Checks/check1/open-images-609_2dc0baa993a2bd25img5.jpg,Checks/check1/open-images-1854_2b15616b4f1080e7img2.jpg,Checks/check1/open-images-1435_1b0ce31951048765img8.jpg,,,1,2022-06-15_18h08.35.612,annotation,2021.2.3,Win32,60.10699044,,
,,,,,,,,,,,,,,,,,-0.503703704,-0.123148148,1,0,0,image_5,0,36,36,59,1,1,The only picture of a hawk.  It is looking to the left.  You see lots of branches and darker blue sky. ,H,,5,open-images-958_686caac9c5b322e7,Checks/check2/open-images-2603_1b5152f01f0093e7img3.jpg,Checks/check2/open-images-1836_069810916ce5d675img8.jpg,Checks/check2/open-images-974_0748fdedc4bf8b7bimg2.jpg,Checks/check2/open-images-617_01fb725fb1aa7b04img6.jpg,Checks/check2/open-images-507_047769e1f977cd97img2.jpg,Checks/check2/open-images-958_686caac9c5b322e7img5.jpg,Checks/check2/open-images-1278_21851d9bf5dc05c9img7.jpg,Checks/check2/open-images-2424_05f04546e01499f2img0.jpg,Checks/check2/open-images-1529_1442b11a10a6aeadimg3.jpg,Checks/check2/open-images-514_2c523ddedc2561d4img1.jpg,,,1,2022-06-15_18h08.35.612,annotation,2021.2.3,Win32,60.10699044,,
,,,,,,,,,,,,,,,,,0.250925926,0.190740741,1,0,0,image_3,0,37,37,39,1,1243,A person wearing a hat with a penguin on it.,M,1,1,video-storytelling-videobirthday__amwPjAcoC8-shot13_2,Images/video-storytelling-videobirthday__amwPjAcoC8-shot13_2/img45.jpg,Images/video-storytelling-videobirthday__amwPjAcoC8-shot13_2/img47.jpg,Images/video-storytelling-videobirthday__amwPjAcoC8-shot13_2/img49.jpg,Images/video-storytelling-videobirthday__amwPjAcoC8-shot13_2/img50.jpg,Images/video-storytelling-videobirthday__amwPjAcoC8-shot13_2/img53.jpg,Images/video-storytelling-videobirthday__amwPjAcoC8-shot13_2/img58.jpg,Images/video-storytelling-videobirthday__amwPjAcoC8-shot13_2/img60.jpg,Images/video-storytelling-videobirthday__amwPjAcoC8-shot13_2/img61.jpg,Images/video-storytelling-videobirthday__amwPjAcoC8-shot13_2/img62.jpg,Images/video-storytelling-videobirthday__amwPjAcoC8-shot13_2/img64.jpg,1516,28,0,2022-06-15_18h08.35.612,annotation,2021.2.3,Win32,60.10699044,,
,,,,,,,,,,,,,,,,,-0.228703704,-0.103703704,1,0,0,image_6,0,38,38,17,1,340,"The screen is faded. There are two men showing, one looking forward the other looking to the right.",H,0,6,MSR-VTT-videoTestVideo_video8633-shot1_0,Images/MSR-VTT-videoTestVideo_video8633-shot1_0/img0.jpg,Images/MSR-VTT-videoTestVideo_video8633-shot1_0/img3.jpg,Images/MSR-VTT-videoTestVideo_video8633-shot1_0/img6.jpg,Images/MSR-VTT-videoTestVideo_video8633-shot1_0/img7.jpg,Images/MSR-VTT-videoTestVideo_video8633-shot1_0/img8.jpg,Images/MSR-VTT-videoTestVideo_video8633-shot1_0/img9.jpg,Images/MSR-VTT-videoTestVideo_video8633-shot1_0/img14.jpg,Images/MSR-VTT-videoTestVideo_video8633-shot1_0/img27.jpg,Images/MSR-VTT-videoTestVideo_video8633-shot1_0/img66.jpg,Images/MSR-VTT-videoTestVideo_video8633-shot1_0/img94.jpg,1816,28,0,2022-06-15_18h08.35.612,annotation,2021.2.3,Win32,60.10699044,,
,,,,,,,,,,,,,,,,,-0.041666667,0.153703704,1,0,0,image_2,0,39,39,15,1,1455,A man that is standing in front of a row of rows of rows of rows of rows of rows of rows of rows of rows of rows of rows of rows of rows of rows of rows of rows of rows of rows of rows of rows of rows of rows of rows of rows of rows of rows of rows of rows of rows of,M,0,1,MSR-VTT-videoTestVideo_video9600-shot3_0,Images/MSR-VTT-videoTestVideo_video9600-shot3_0/img0.jpg,Images/MSR-VTT-videoTestVideo_video9600-shot3_0/img5.jpg,Images/MSR-VTT-videoTestVideo_video9600-shot3_0/img6.jpg,Images/MSR-VTT-videoTestVideo_video9600-shot3_0/img7.jpg,Images/MSR-VTT-videoTestVideo_video9600-shot3_0/img10.jpg,Images/MSR-VTT-videoTestVideo_video9600-shot3_0/img11.jpg,Images/MSR-VTT-videoTestVideo_video9600-shot3_0/img12.jpg,Images/MSR-VTT-videoTestVideo_video9600-shot3_0/img14.jpg,Images/MSR-VTT-videoTestVideo_video9600-shot3_0/img19.jpg,Images/MSR-VTT-videoTestVideo_video9600-shot3_0/img21.jpg,1045,28,0,2022-06-15_18h08.35.612,annotation,2021.2.3,Win32,60.10699044,,
,,,,,,,,,,,,,,,,,-0.266666667,0.166666667,1,0,0,image_1,0,40,40,22,1,1654,A little girl playing with a kite on a lawn.,M,0,2,video-storytelling-videobirthday__amwPjAcoC8-shot68_6,Images/video-storytelling-videobirthday__amwPjAcoC8-shot68_6/img174.jpg,Images/video-storytelling-videobirthday__amwPjAcoC8-shot68_6/img176.jpg,Images/video-storytelling-videobirthday__amwPjAcoC8-shot68_6/img178.jpg,Images/video-storytelling-videobirthday__amwPjAcoC8-shot68_6/img181.jpg,Images/video-storytelling-videobirthday__amwPjAcoC8-shot68_6/img185.jpg,Images/video-storytelling-videobirthday__amwPjAcoC8-shot68_6/img188.jpg,Images/video-storytelling-videobirthday__amwPjAcoC8-shot68_6/img190.jpg,Images/video-storytelling-videobirthday__amwPjAcoC8-shot68_6/img193.jpg,Images/video-storytelling-videobirthday__amwPjAcoC8-shot68_6/img197.jpg,Images/video-storytelling-videobirthday__amwPjAcoC8-shot68_6/img201.jpg,655,28,0,2022-06-15_18h08.35.612,annotation,2021.2.3,Win32,60.10699044,,
,,,,,,,,,,,,,,,,,-0.026851852,-0.184259259,1,0,0,image_7,0,41,41,21,1,604,You can see the woman's bracelet clearly. The napkin is visible but does not cover any part of the woman's hands or arms. ,H,0,7,video-storytelling-videobirthday_fwpYnUDbusw-shot63_2,Images/video-storytelling-videobirthday_fwpYnUDbusw-shot63_2/img62.jpg,Images/video-storytelling-videobirthday_fwpYnUDbusw-shot63_2/img70.jpg,Images/video-storytelling-videobirthday_fwpYnUDbusw-shot63_2/img76.jpg,Images/video-storytelling-videobirthday_fwpYnUDbusw-shot63_2/img88.jpg,Images/video-storytelling-videobirthday_fwpYnUDbusw-shot63_2/img92.jpg,Images/video-storytelling-videobirthday_fwpYnUDbusw-shot63_2/img97.jpg,Images/video-storytelling-videobirthday_fwpYnUDbusw-shot63_2/img101.jpg,Images/video-storytelling-videobirthday_fwpYnUDbusw-shot63_2/img105.jpg,Images/video-storytelling-videobirthday_fwpYnUDbusw-shot63_2/img109.jpg,Images/video-storytelling-videobirthday_fwpYnUDbusw-shot63_2/img110.jpg,100,28,0,2022-06-15_18h08.35.612,annotation,2021.2.3,Win32,60.10699044,,
,,,,,,,,,,,,,,,,,0.282407407,0.17962963,1,0,0,image_3,0,42,42,5,1,179,A small amount of brown powder is being poured into bowl that has hit bottom. ,H,1,3,YouCook-video0008-shot1_1,Images/YouCook-video0008-shot1_1/img458.jpg,Images/YouCook-video0008-shot1_1/img498.jpg,Images/YouCook-video0008-shot1_1/img545.jpg,Images/YouCook-video0008-shot1_1/img553.jpg,Images/YouCook-video0008-shot1_1/img589.jpg,Images/YouCook-video0008-shot1_1/img603.jpg,Images/YouCook-video0008-shot1_1/img653.jpg,Images/YouCook-video0008-shot1_1/img692.jpg,Images/YouCook-video0008-shot1_1/img742.jpg,Images/YouCook-video0008-shot1_1/img763.jpg,1956,28,0,2022-06-15_18h08.35.612,annotation,2021.2.3,Win32,60.10699044,,
,,,,,,,,,,,,,,,,,0.516666667,-0.140740741,1,0,0,image_9,0,43,43,30,1,171,There is a strong overlaying picture of the person in white shirt's face over the picture with the two guys. ,H,0,9,MSR-VTT-videoTestVideo_video8861-shot0_0,Images/MSR-VTT-videoTestVideo_video8861-shot0_0/img0.jpg,Images/MSR-VTT-videoTestVideo_video8861-shot0_0/img4.jpg,Images/MSR-VTT-videoTestVideo_video8861-shot0_0/img15.jpg,Images/MSR-VTT-videoTestVideo_video8861-shot0_0/img37.jpg,Images/MSR-VTT-videoTestVideo_video8861-shot0_0/img54.jpg,Images/MSR-VTT-videoTestVideo_video8861-shot0_0/img64.jpg,Images/MSR-VTT-videoTestVideo_video8861-shot0_0/img72.jpg,Images/MSR-VTT-videoTestVideo_video8861-shot0_0/img101.jpg,Images/MSR-VTT-videoTestVideo_video8861-shot0_0/img106.jpg,Images/MSR-VTT-videoTestVideo_video8861-shot0_0/img108.jpg,19,28,0,2022-06-15_18h08.35.612,annotation,2021.2.3,Win32,60.10699044,,
,,,,,,,,,,,,,,,,,0.021296296,-0.125,1,0,0,image_7,0,44,44,8,1,1875,A young man standing in front of a white bed.,M,0,3,MSR-VTT-videoTestVideo_video8700-shot3_2,Images/MSR-VTT-videoTestVideo_video8700-shot3_2/img143.jpg,Images/MSR-VTT-videoTestVideo_video8700-shot3_2/img146.jpg,Images/MSR-VTT-videoTestVideo_video8700-shot3_2/img152.jpg,Images/MSR-VTT-videoTestVideo_video8700-shot3_2/img157.jpg,Images/MSR-VTT-videoTestVideo_video8700-shot3_2/img162.jpg,Images/MSR-VTT-videoTestVideo_video8700-shot3_2/img168.jpg,Images/MSR-VTT-videoTestVideo_video8700-shot3_2/img172.jpg,Images/MSR-VTT-videoTestVideo_video8700-shot3_2/img178.jpg,Images/MSR-VTT-videoTestVideo_video8700-shot3_2/img182.jpg,Images/MSR-VTT-videoTestVideo_video8700-shot3_2/img186.jpg,672,28,0,2022-06-15_18h08.35.612,annotation,2021.2.3,Win32,60.10699044,,
,,,,,,,,,,,,,,,,,0.25462963,0.181481481,1,0,0,image_3,0,45,45,2,1,1704,A little boy with a hat on top of a table.,M,0,1,video-storytelling-videobirthday__amwPjAcoC8-shot52_2,Images/video-storytelling-videobirthday__amwPjAcoC8-shot52_2/img88.jpg,Images/video-storytelling-videobirthday__amwPjAcoC8-shot52_2/img90.jpg,Images/video-storytelling-videobirthday__amwPjAcoC8-shot52_2/img92.jpg,Images/video-storytelling-videobirthday__amwPjAcoC8-shot52_2/img93.jpg,Images/video-storytelling-videobirthday__amwPjAcoC8-shot52_2/img94.jpg,Images/video-storytelling-videobirthday__amwPjAcoC8-shot52_2/img95.jpg,Images/video-storytelling-videobirthday__amwPjAcoC8-shot52_2/img97.jpg,Images/video-storytelling-videobirthday__amwPjAcoC8-shot52_2/img100.jpg,Images/video-storytelling-videobirthday__amwPjAcoC8-shot52_2/img105.jpg,Images/video-storytelling-videobirthday__amwPjAcoC8-shot52_2/img107.jpg,1449,28,0,2022-06-15_18h08.35.612,annotation,2021.2.3,Win32,60.10699044,,
,,,,,,,,,,,,,,,,,0.025925926,-0.127777778,1,0,0,image_7,0,46,46,46,1,850,There is a small green spherical object near the right side of the raccoon on the table.  You can see the entire green ball. ,H,0,7,MSR-VTT-videoTestVideo_video9903-shot1_3,Images/MSR-VTT-videoTestVideo_video9903-shot1_3/img94.jpg,Images/MSR-VTT-videoTestVideo_video9903-shot1_3/img99.jpg,Images/MSR-VTT-videoTestVideo_video9903-shot1_3/img103.jpg,Images/MSR-VTT-videoTestVideo_video9903-shot1_3/img106.jpg,Images/MSR-VTT-videoTestVideo_video9903-shot1_3/img109.jpg,Images/MSR-VTT-videoTestVideo_video9903-shot1_3/img116.jpg,Images/MSR-VTT-videoTestVideo_video9903-shot1_3/img118.jpg,Images/MSR-VTT-videoTestVideo_video9903-shot1_3/img139.jpg,Images/MSR-VTT-videoTestVideo_video9903-shot1_3/img141.jpg,Images/MSR-VTT-videoTestVideo_video9903-shot1_3/img144.jpg,673,28,0,2022-06-15_18h08.35.612,annotation,2021.2.3,Win32,60.10699044,,
,,,,,,,,,,,,,,,,,-0.272222222,0.121296296,1,0,0,image_1,0,47,47,32,1,1806,A woman standing in front of a cake in a kitchen.,M,1,8,video-storytelling-videobirthday_fwpYnUDbusw-shot8_3,Images/video-storytelling-videobirthday_fwpYnUDbusw-shot8_3/img170.jpg,Images/video-storytelling-videobirthday_fwpYnUDbusw-shot8_3/img175.jpg,Images/video-storytelling-videobirthday_fwpYnUDbusw-shot8_3/img180.jpg,Images/video-storytelling-videobirthday_fwpYnUDbusw-shot8_3/img188.jpg,Images/video-storytelling-videobirthday_fwpYnUDbusw-shot8_3/img201.jpg,Images/video-storytelling-videobirthday_fwpYnUDbusw-shot8_3/img206.jpg,Images/video-storytelling-videobirthday_fwpYnUDbusw-shot8_3/img217.jpg,Images/video-storytelling-videobirthday_fwpYnUDbusw-shot8_3/img229.jpg,Images/video-storytelling-videobirthday_fwpYnUDbusw-shot8_3/img234.jpg,Images/video-storytelling-videobirthday_fwpYnUDbusw-shot8_3/img239.jpg,1560,28,0,2022-06-15_18h08.35.612,annotation,2021.2.3,Win32,60.10699044,,
,,,,,,,,,,,,,,,,,-0.498148148,0.174074074,1,0,0,image_0,0,48,48,48,1,728,You can see his whole face.  His elbow is high up into the air and you can see his fist clearly. ,H,0,1,MSR-VTT-videoTestVideo_video7686-shot3_0,Images/MSR-VTT-videoTestVideo_video7686-shot3_0/img0.jpg,Images/MSR-VTT-videoTestVideo_video7686-shot3_0/img1.jpg,Images/MSR-VTT-videoTestVideo_video7686-shot3_0/img2.jpg,Images/MSR-VTT-videoTestVideo_video7686-shot3_0/img4.jpg,Images/MSR-VTT-videoTestVideo_video7686-shot3_0/img5.jpg,Images/MSR-VTT-videoTestVideo_video7686-shot3_0/img7.jpg,Images/MSR-VTT-videoTestVideo_video7686-shot3_0/img9.jpg,Images/MSR-VTT-videoTestVideo_video7686-shot3_0/img12.jpg,Images/MSR-VTT-videoTestVideo_video7686-shot3_0/img13.jpg,Images/MSR-VTT-videoTestVideo_video7686-shot3_0/img15.jpg,559,28,0,2022-06-15_18h08.35.612,annotation,2021.2.3,Win32,60.10699044,,
,,,,,,,,,,,,,,,,,-0.516666667,0.147222222,1,0,0,image_0,0,49,49,6,1,294,"The flour, eggs and batter bowls are all visible, with more of flour bowl visible than the batter bowl.",H,1,0,YouCook-video0010-shot1_1,Images/YouCook-video0010-shot1_1/img165.jpg,Images/YouCook-video0010-shot1_1/img179.jpg,Images/YouCook-video0010-shot1_1/img189.jpg,Images/YouCook-video0010-shot1_1/img201.jpg,Images/YouCook-video0010-shot1_1/img213.jpg,Images/YouCook-video0010-shot1_1/img216.jpg,Images/YouCook-video0010-shot1_1/img226.jpg,Images/YouCook-video0010-shot1_1/img235.jpg,Images/YouCook-video0010-shot1_1/img240.jpg,Images/YouCook-video0010-shot1_1/img251.jpg,946,28,0,2022-06-15_18h08.35.612,annotation,2021.2.3,Win32,60.10699044,,
,,,,,,,,,,,,,,,,,-0.513888889,0.175925926,1,0,0,image_0,0,50,50,31,1,2048,a close up of a metal fire hydrant.,M,0,2,MSR-VTT-videoTestVideo_video8095-shot1_1,Images/MSR-VTT-videoTestVideo_video8095-shot1_1/img307.jpg,Images/MSR-VTT-videoTestVideo_video8095-shot1_1/img332.jpg,Images/MSR-VTT-videoTestVideo_video8095-shot1_1/img390.jpg,Images/MSR-VTT-videoTestVideo_video8095-shot1_1/img395.jpg,Images/MSR-VTT-videoTestVideo_video8095-shot1_1/img423.jpg,Images/MSR-VTT-videoTestVideo_video8095-shot1_1/img425.jpg,Images/MSR-VTT-videoTestVideo_video8095-shot1_1/img426.jpg,Images/MSR-VTT-videoTestVideo_video8095-shot1_1/img432.jpg,Images/MSR-VTT-videoTestVideo_video8095-shot1_1/img449.jpg,Images/MSR-VTT-videoTestVideo_video8095-shot1_1/img463.jpg,616,28,0,2022-06-15_18h08.35.612,annotation,2021.2.3,Win32,60.10699044,,
,,,,,,,,,,,,,,,,,0.465740741,0.161111111,1,0,0,image_4,0,51,51,43,1,536,The girl is turning to the right so you can only see her right ear.  The side of her face isn't really visible any more. ,H,0,6,MSR-VTT-videoTestVideo_video9979-shot1_2,Images/MSR-VTT-videoTestVideo_video9979-shot1_2/img84.jpg,Images/MSR-VTT-videoTestVideo_video9979-shot1_2/img87.jpg,Images/MSR-VTT-videoTestVideo_video9979-shot1_2/img92.jpg,Images/MSR-VTT-videoTestVideo_video9979-shot1_2/img96.jpg,Images/MSR-VTT-videoTestVideo_video9979-shot1_2/img99.jpg,Images/MSR-VTT-videoTestVideo_video9979-shot1_2/img101.jpg,Images/MSR-VTT-videoTestVideo_video9979-shot1_2/img103.jpg,Images/MSR-VTT-videoTestVideo_video9979-shot1_2/img106.jpg,Images/MSR-VTT-videoTestVideo_video9979-shot1_2/img110.jpg,Images/MSR-VTT-videoTestVideo_video9979-shot1_2/img117.jpg,2000,28,0,2022-06-15_18h08.35.612,annotation,2021.2.3,Win32,60.10699044,,
,,,,,,,,,,,,,,,,,0.226851852,0.15462963,1,0,0,image_3,0,52,52,35,1,494,The text box is fully shown but is not covering the white star on the head of the horse on the left.,H,0,3,MSR-VTT-videoTestVideo_video9248-shot0_1,Images/MSR-VTT-videoTestVideo_video9248-shot0_1/img62.jpg,Images/MSR-VTT-videoTestVideo_video9248-shot0_1/img71.jpg,Images/MSR-VTT-videoTestVideo_video9248-shot0_1/img88.jpg,Images/MSR-VTT-videoTestVideo_video9248-shot0_1/img92.jpg,Images/MSR-VTT-videoTestVideo_video9248-shot0_1/img98.jpg,Images/MSR-VTT-videoTestVideo_video9248-shot0_1/img125.jpg,Images/MSR-VTT-videoTestVideo_video9248-shot0_1/img147.jpg,Images/MSR-VTT-videoTestVideo_video9248-shot0_1/img153.jpg,Images/MSR-VTT-videoTestVideo_video9248-shot0_1/img163.jpg,Images/MSR-VTT-videoTestVideo_video9248-shot0_1/img193.jpg,602,28,0,2022-06-15_18h08.35.612,annotation,2021.2.3,Win32,60.10699044,,
,,,,,,,,,,,,,,,,,0.535185185,-0.133333333,1,0,0,image_9,0,53,53,14,1,939,There is text at the bottom of the screen.  The man looking off to the left and the first 6 letters of the second word of text are over top of the man's neck. ,H,0,6,MSR-VTT-videoTestVideo_video9608-shot8_0,Images/MSR-VTT-videoTestVideo_video9608-shot8_0/img0.jpg,Images/MSR-VTT-videoTestVideo_video9608-shot8_0/img10.jpg,Images/MSR-VTT-videoTestVideo_video9608-shot8_0/img24.jpg,Images/MSR-VTT-videoTestVideo_video9608-shot8_0/img28.jpg,Images/MSR-VTT-videoTestVideo_video9608-shot8_0/img34.jpg,Images/MSR-VTT-videoTestVideo_video9608-shot8_0/img39.jpg,Images/MSR-VTT-videoTestVideo_video9608-shot8_0/img46.jpg,Images/MSR-VTT-videoTestVideo_video9608-shot8_0/img51.jpg,Images/MSR-VTT-videoTestVideo_video9608-shot8_0/img74.jpg,Images/MSR-VTT-videoTestVideo_video9608-shot8_0/img83.jpg,274,28,0,2022-06-15_18h08.35.612,annotation,2021.2.3,Win32,60.10699044,,
,,,,,,,,,,,,,,,,,-0.465740741,0.121296296,1,0,0,image_0,0,54,54,40,1,1238,A woman standing in front of a crowd of people.,M,0,8,MSR-VTT-videoTestVideo_video8476-shot1_4,Images/MSR-VTT-videoTestVideo_video8476-shot1_4/img162.jpg,Images/MSR-VTT-videoTestVideo_video8476-shot1_4/img166.jpg,Images/MSR-VTT-videoTestVideo_video8476-shot1_4/img167.jpg,Images/MSR-VTT-videoTestVideo_video8476-shot1_4/img168.jpg,Images/MSR-VTT-videoTestVideo_video8476-shot1_4/img170.jpg,Images/MSR-VTT-videoTestVideo_video8476-shot1_4/img172.jpg,Images/MSR-VTT-videoTestVideo_video8476-shot1_4/img174.jpg,Images/MSR-VTT-videoTestVideo_video8476-shot1_4/img175.jpg,Images/MSR-VTT-videoTestVideo_video8476-shot1_4/img178.jpg,Images/MSR-VTT-videoTestVideo_video8476-shot1_4/img180.jpg,724,28,0,2022-06-15_18h08.35.612,annotation,2021.2.3,Win32,60.10699044,,
,,,,,,,,,,,,,,,,,0.535185185,0.163888889,1,0,0,image_4,0,55,55,27,1,808,The text is fully lit up at the bottom of the image.  The man in the back who is closest to the camera has his left leg forward and the text is fully to his right. ,H,0,4,MSR-VTT-videoTestVideo_video8306-shot1_0,Images/MSR-VTT-videoTestVideo_video8306-shot1_0/img0.jpg,Images/MSR-VTT-videoTestVideo_video8306-shot1_0/img2.jpg,Images/MSR-VTT-videoTestVideo_video8306-shot1_0/img6.jpg,Images/MSR-VTT-videoTestVideo_video8306-shot1_0/img15.jpg,Images/MSR-VTT-videoTestVideo_video8306-shot1_0/img22.jpg,Images/MSR-VTT-videoTestVideo_video8306-shot1_0/img39.jpg,Images/MSR-VTT-videoTestVideo_video8306-shot1_0/img54.jpg,Images/MSR-VTT-videoTestVideo_video8306-shot1_0/img68.jpg,Images/MSR-VTT-videoTestVideo_video8306-shot1_0/img86.jpg,Images/MSR-VTT-videoTestVideo_video8306-shot1_0/img94.jpg,391,28,0,2022-06-15_18h08.35.612,annotation,2021.2.3,Win32,60.10699044,,
,,,,,,,,,,,,,,,,,0.262962963,-0.149074074,1,0,0,image_8,0,56,56,16,1,291,"you can see the girl in sunglasses but not her hands, and then the edge of one other persons hair and arm",H,0,8,video-storytelling-videocamping_1OzbiB1TIWI-shot12_8,Images/video-storytelling-videocamping_1OzbiB1TIWI-shot12_8/img429.jpg,Images/video-storytelling-videocamping_1OzbiB1TIWI-shot12_8/img439.jpg,Images/video-storytelling-videocamping_1OzbiB1TIWI-shot12_8/img440.jpg,Images/video-storytelling-videocamping_1OzbiB1TIWI-shot12_8/img441.jpg,Images/video-storytelling-videocamping_1OzbiB1TIWI-shot12_8/img443.jpg,Images/video-storytelling-videocamping_1OzbiB1TIWI-shot12_8/img445.jpg,Images/video-storytelling-videocamping_1OzbiB1TIWI-shot12_8/img452.jpg,Images/video-storytelling-videocamping_1OzbiB1TIWI-shot12_8/img456.jpg,Images/video-storytelling-videocamping_1OzbiB1TIWI-shot12_8/img458.jpg,Images/video-storytelling-videocamping_1OzbiB1TIWI-shot12_8/img466.jpg,1673,28,0,2022-06-15_18h08.35.612,annotation,2021.2.3,Win32,60.10699044,,
,,,,,,,,,,,,,,,,,-0.233333333,-0.119444444,1,0,0,image_6,0,57,57,7,1,1618,A picture of a volleyball player sitting on a beach.,M,0,8,MSR-VTT-videoTestVideo_video8896-shot1_2,Images/MSR-VTT-videoTestVideo_video8896-shot1_2/img368.jpg,Images/MSR-VTT-videoTestVideo_video8896-shot1_2/img401.jpg,Images/MSR-VTT-videoTestVideo_video8896-shot1_2/img449.jpg,Images/MSR-VTT-videoTestVideo_video8896-shot1_2/img492.jpg,Images/MSR-VTT-videoTestVideo_video8896-shot1_2/img504.jpg,Images/MSR-VTT-videoTestVideo_video8896-shot1_2/img559.jpg,Images/MSR-VTT-videoTestVideo_video8896-shot1_2/img576.jpg,Images/MSR-VTT-videoTestVideo_video8896-shot1_2/img588.jpg,Images/MSR-VTT-videoTestVideo_video8896-shot1_2/img628.jpg,Images/MSR-VTT-videoTestVideo_video8896-shot1_2/img642.jpg,1179,28,0,2022-06-15_18h08.35.612,annotation,2021.2.3,Win32,60.10699044,,
,,,,,,,,,,,,,,,,,-0.234259259,0.175925926,1,0,0,image_1,0,58,58,13,1,1352,A man standing next to a dog on a kitchen counter.,M,1,7,MSR-VTT-videoTestVideo_video7652-shot1_2,Images/MSR-VTT-videoTestVideo_video7652-shot1_2/img150.jpg,Images/MSR-VTT-videoTestVideo_video7652-shot1_2/img152.jpg,Images/MSR-VTT-videoTestVideo_video7652-shot1_2/img154.jpg,Images/MSR-VTT-videoTestVideo_video7652-shot1_2/img155.jpg,Images/MSR-VTT-videoTestVideo_video7652-shot1_2/img157.jpg,Images/MSR-VTT-videoTestVideo_video7652-shot1_2/img175.jpg,Images/MSR-VTT-videoTestVideo_video7652-shot1_2/img176.jpg,Images/MSR-VTT-videoTestVideo_video7652-shot1_2/img184.jpg,Images/MSR-VTT-videoTestVideo_video7652-shot1_2/img189.jpg,Images/MSR-VTT-videoTestVideo_video7652-shot1_2/img191.jpg,1890,28,0,2022-06-15_18h08.35.612,annotation,2021.2.3,Win32,60.10699044,,
,,,,,,,,,,,,,,,,,-0.477777778,0.149074074,1,0,0,image_0,0,59,59,1,1,1708,A man standing next to a river with a hat on.,M,1,4,MSR-VTT-videoTestVideo_video7816-shot0_2,Images/MSR-VTT-videoTestVideo_video7816-shot0_2/img80.jpg,Images/MSR-VTT-videoTestVideo_video7816-shot0_2/img96.jpg,Images/MSR-VTT-videoTestVideo_video7816-shot0_2/img104.jpg,Images/MSR-VTT-videoTestVideo_video7816-shot0_2/img109.jpg,Images/MSR-VTT-videoTestVideo_video7816-shot0_2/img112.jpg,Images/MSR-VTT-videoTestVideo_video7816-shot0_2/img118.jpg,Images/MSR-VTT-videoTestVideo_video7816-shot0_2/img127.jpg,Images/MSR-VTT-videoTestVideo_video7816-shot0_2/img134.jpg,Images/MSR-VTT-videoTestVideo_video7816-shot0_2/img136.jpg,Images/MSR-VTT-videoTestVideo_video7816-shot0_2/img138.jpg,1446,28,0,2022-06-15_18h08.35.612,annotation,2021.2.3,Win32,60.10699044,,
,,,,,,,,,,,,,,,,,-0.50462963,-0.141666667,1,0,0,image_5,0,60,60,54,1,1723,A man standing in front of a fence holding a toy bat.,M,0,5,MSR-VTT-videoTestVideo_video8842-shot1_0,Images/MSR-VTT-videoTestVideo_video8842-shot1_0/img0.jpg,Images/MSR-VTT-videoTestVideo_video8842-shot1_0/img3.jpg,Images/MSR-VTT-videoTestVideo_video8842-shot1_0/img5.jpg,Images/MSR-VTT-videoTestVideo_video8842-shot1_0/img9.jpg,Images/MSR-VTT-videoTestVideo_video8842-shot1_0/img17.jpg,Images/MSR-VTT-videoTestVideo_video8842-shot1_0/img22.jpg,Images/MSR-VTT-videoTestVideo_video8842-shot1_0/img29.jpg,Images/MSR-VTT-videoTestVideo_video8842-shot1_0/img35.jpg,Images/MSR-VTT-videoTestVideo_video8842-shot1_0/img37.jpg,Images/MSR-VTT-videoTestVideo_video8842-shot1_0/img42.jpg,1736,28,0,2022-06-15_18h08.35.612,annotation,2021.2.3,Win32,60.10699044,,
,,,,,,,,,,,,,,,,,-0.242592593,0.168518519,1,0,0,image_1,0,61,61,20,1,82,tHE SCREEN FLASHES as if lightning is striking as a man tries to lift a hammer off a mound,H,0,4,MSR-VTT-videoTestVideo_video7095-shot1_0,Images/MSR-VTT-videoTestVideo_video7095-shot1_0/img0.jpg,Images/MSR-VTT-videoTestVideo_video7095-shot1_0/img1.jpg,Images/MSR-VTT-videoTestVideo_video7095-shot1_0/img4.jpg,Images/MSR-VTT-videoTestVideo_video7095-shot1_0/img9.jpg,Images/MSR-VTT-videoTestVideo_video7095-shot1_0/img14.jpg,Images/MSR-VTT-videoTestVideo_video7095-shot1_0/img16.jpg,Images/MSR-VTT-videoTestVideo_video7095-shot1_0/img18.jpg,Images/MSR-VTT-videoTestVideo_video7095-shot1_0/img42.jpg,Images/MSR-VTT-videoTestVideo_video7095-shot1_0/img60.jpg,Images/MSR-VTT-videoTestVideo_video7095-shot1_0/img66.jpg,1927,28,0,2022-06-15_18h08.35.612,annotation,2021.2.3,Win32,60.10699044,,
,,,,,,,,,,,,,,,,,-0.002777778,0.171296296,1,0,0,image_2,0,62,62,10,1,1862,A woman sitting on top of a bench holding a cup.,M,0,3,video-storytelling-videocamping_1OzbiB1TIWI-shot11_3,Images/video-storytelling-videocamping_1OzbiB1TIWI-shot11_3/img142.jpg,Images/video-storytelling-videocamping_1OzbiB1TIWI-shot11_3/img146.jpg,Images/video-storytelling-videocamping_1OzbiB1TIWI-shot11_3/img156.jpg,Images/video-storytelling-videocamping_1OzbiB1TIWI-shot11_3/img168.jpg,Images/video-storytelling-videocamping_1OzbiB1TIWI-shot11_3/img172.jpg,Images/video-storytelling-videocamping_1OzbiB1TIWI-shot11_3/img175.jpg,Images/video-storytelling-videocamping_1OzbiB1TIWI-shot11_3/img179.jpg,Images/video-storytelling-videocamping_1OzbiB1TIWI-shot11_3/img183.jpg,Images/video-storytelling-videocamping_1OzbiB1TIWI-shot11_3/img185.jpg,Images/video-storytelling-videocamping_1OzbiB1TIWI-shot11_3/img196.jpg,80,28,0,2022-06-15_18h08.35.612,annotation,2021.2.3,Win32,60.10699044,,
,,,,,,,,,,,,,,,,,,,,,,,,,,,,,,,,,,,,,,,,,,,,,,,2022-06-15_18h08.35.612,annotation,2021.2.3,Win32,60.10699044,space,34.6492
