mturk,key_resp_2.keys,key_resp_2.rt,key_resp_3.keys,key_resp_3.rt,mouse_2.x,mouse_2.y,mouse_2.leftButton,mouse_2.midButton,mouse_2.rightButton,mouse_2.clicked_name,key_resp_5.keys,key_resp_5.rt,key_resp.keys,key_resp.rt,key_resp_6.keys,key_resp_6.rt,mouse.x,mouse.y,mouse.leftButton,mouse.midButton,mouse.rightButton,mouse.clicked_name,trials.thisRepN,trials.thisTrialN,trials.thisN,trials.thisIndex,trials.ran,N,caption,class_caption,model_guessed,target_idx,image_set,img1,img2,img3,img4,img5,img6,img7,img8,img9,img10,Q_id,block,is_check,date,expName,psychopyVersion,OS,frameRate,key_resp_7.keys,key_resp_7.rt
5870067,space,6.2623,space,3.9673,0.225,0.110185185,1,0,0,ex4,space,5.0219,space,6.6226,space,4.5644,0.252777778,-0.142592593,1,0,0,image_8,0,0,0,55,1,207,"There are four purple people, one is cut off on the left side and one is cut off on the bottom. In the top right corner there is a white line, just to the left of that a white line goes around a column, it cuts through a purple person laying next to the column.",H,0,8,MSR-VTT-videoTestVideo_video8027-shot1_0,Images/MSR-VTT-videoTestVideo_video8027-shot1_0/img0.jpg,Images/MSR-VTT-videoTestVideo_video8027-shot1_0/img4.jpg,Images/MSR-VTT-videoTestVideo_video8027-shot1_0/img7.jpg,Images/MSR-VTT-videoTestVideo_video8027-shot1_0/img8.jpg,Images/MSR-VTT-videoTestVideo_video8027-shot1_0/img13.jpg,Images/MSR-VTT-videoTestVideo_video8027-shot1_0/img34.jpg,Images/MSR-VTT-videoTestVideo_video8027-shot1_0/img52.jpg,Images/MSR-VTT-videoTestVideo_video8027-shot1_0/img57.jpg,Images/MSR-VTT-videoTestVideo_video8027-shot1_0/img65.jpg,Images/MSR-VTT-videoTestVideo_video8027-shot1_0/img73.jpg,1481,2,0,2022-06-14_19h09.19.036,annotation,2021.2.3,Win32,59.99880002,,
,,,,,,,,,,,,,,,,,0.028703704,-0.169444444,1,0,0,image_7,0,1,1,6,1,1036,There is picture overlay.  The main picture is of a person with a blue outfit on and the faded picture is three people standing.  ,H,0,7,MSR-VTT-videoTestVideo_video8337-shot1_0,Images/MSR-VTT-videoTestVideo_video8337-shot1_0/img0.jpg,Images/MSR-VTT-videoTestVideo_video8337-shot1_0/img9.jpg,Images/MSR-VTT-videoTestVideo_video8337-shot1_0/img10.jpg,Images/MSR-VTT-videoTestVideo_video8337-shot1_0/img19.jpg,Images/MSR-VTT-videoTestVideo_video8337-shot1_0/img34.jpg,Images/MSR-VTT-videoTestVideo_video8337-shot1_0/img44.jpg,Images/MSR-VTT-videoTestVideo_video8337-shot1_0/img63.jpg,Images/MSR-VTT-videoTestVideo_video8337-shot1_0/img66.jpg,Images/MSR-VTT-videoTestVideo_video8337-shot1_0/img67.jpg,Images/MSR-VTT-videoTestVideo_video8337-shot1_0/img74.jpg,1380,2,0,2022-06-14_19h09.19.036,annotation,2021.2.3,Win32,59.99880002,,
,,,,,,,,,,,,,,,,,0.263888889,0.121296296,1,0,0,image_3,0,2,2,4,1,1430,A person is cutting up a piece of onion on a cutting board.,M,0,3,YouCook-video0034-shot13_0,Images/YouCook-video0034-shot13_0/img0.jpg,Images/YouCook-video0034-shot13_0/img5.jpg,Images/YouCook-video0034-shot13_0/img14.jpg,Images/YouCook-video0034-shot13_0/img33.jpg,Images/YouCook-video0034-shot13_0/img74.jpg,Images/YouCook-video0034-shot13_0/img84.jpg,Images/YouCook-video0034-shot13_0/img101.jpg,Images/YouCook-video0034-shot13_0/img113.jpg,Images/YouCook-video0034-shot13_0/img127.jpg,Images/YouCook-video0034-shot13_0/img130.jpg,514,2,0,2022-06-14_19h09.19.036,annotation,2021.2.3,Win32,59.99880002,,
,,,,,,,,,,,,,,,,,-0.001851852,0.121296296,1,0,0,image_2,0,3,3,21,1,2082,A woman holding a cell phone in her hand.,M,1,0,MSR-VTT-videoTestVideo_video7984-shot1_4,Images/MSR-VTT-videoTestVideo_video7984-shot1_4/img346.jpg,Images/MSR-VTT-videoTestVideo_video7984-shot1_4/img355.jpg,Images/MSR-VTT-videoTestVideo_video7984-shot1_4/img380.jpg,Images/MSR-VTT-videoTestVideo_video7984-shot1_4/img403.jpg,Images/MSR-VTT-videoTestVideo_video7984-shot1_4/img423.jpg,Images/MSR-VTT-videoTestVideo_video7984-shot1_4/img438.jpg,Images/MSR-VTT-videoTestVideo_video7984-shot1_4/img446.jpg,Images/MSR-VTT-videoTestVideo_video7984-shot1_4/img450.jpg,Images/MSR-VTT-videoTestVideo_video7984-shot1_4/img454.jpg,Images/MSR-VTT-videoTestVideo_video7984-shot1_4/img466.jpg,348,2,0,2022-06-14_19h09.19.036,annotation,2021.2.3,Win32,59.99880002,,
,,,,,,,,,,,,,,,,,-0.465740741,-0.173148148,1,0,0,image_5,0,4,4,41,1,795,A picture of a man looking straight down with his eyes closed. ,H,0,5,MSR-VTT-videoTestVideo_video9319-shot1_2,Images/MSR-VTT-videoTestVideo_video9319-shot1_2/img163.jpg,Images/MSR-VTT-videoTestVideo_video9319-shot1_2/img170.jpg,Images/MSR-VTT-videoTestVideo_video9319-shot1_2/img186.jpg,Images/MSR-VTT-videoTestVideo_video9319-shot1_2/img201.jpg,Images/MSR-VTT-videoTestVideo_video9319-shot1_2/img211.jpg,Images/MSR-VTT-videoTestVideo_video9319-shot1_2/img220.jpg,Images/MSR-VTT-videoTestVideo_video9319-shot1_2/img229.jpg,Images/MSR-VTT-videoTestVideo_video9319-shot1_2/img236.jpg,Images/MSR-VTT-videoTestVideo_video9319-shot1_2/img272.jpg,Images/MSR-VTT-videoTestVideo_video9319-shot1_2/img276.jpg,2054,2,0,2022-06-14_19h09.19.036,annotation,2021.2.3,Win32,59.99880002,,
,,,,,,,,,,,,,,,,,0.531481481,-0.185185185,1,0,0,image_9,0,5,5,18,1,1505,A group of people standing next to each other in a field.,M,0,2,video-storytelling-videocamping_1OzbiB1TIWI-shot40_4,Images/video-storytelling-videocamping_1OzbiB1TIWI-shot40_4/img228.jpg,Images/video-storytelling-videocamping_1OzbiB1TIWI-shot40_4/img229.jpg,Images/video-storytelling-videocamping_1OzbiB1TIWI-shot40_4/img231.jpg,Images/video-storytelling-videocamping_1OzbiB1TIWI-shot40_4/img233.jpg,Images/video-storytelling-videocamping_1OzbiB1TIWI-shot40_4/img234.jpg,Images/video-storytelling-videocamping_1OzbiB1TIWI-shot40_4/img235.jpg,Images/video-storytelling-videocamping_1OzbiB1TIWI-shot40_4/img236.jpg,Images/video-storytelling-videocamping_1OzbiB1TIWI-shot40_4/img237.jpg,Images/video-storytelling-videocamping_1OzbiB1TIWI-shot40_4/img239.jpg,Images/video-storytelling-videocamping_1OzbiB1TIWI-shot40_4/img242.jpg,1393,2,0,2022-06-14_19h09.19.036,annotation,2021.2.3,Win32,59.99880002,,
,,,,,,,,,,,,,,,,,0.523148148,0.109259259,1,0,0,image_4,0,6,6,40,1,1409,A man laying on the ground in the middle of the street.,M,0,4,MSR-VTT-videoTestVideo_video7112-shot4_4,Images/MSR-VTT-videoTestVideo_video7112-shot4_4/img157.jpg,Images/MSR-VTT-videoTestVideo_video7112-shot4_4/img160.jpg,Images/MSR-VTT-videoTestVideo_video7112-shot4_4/img164.jpg,Images/MSR-VTT-videoTestVideo_video7112-shot4_4/img172.jpg,Images/MSR-VTT-videoTestVideo_video7112-shot4_4/img179.jpg,Images/MSR-VTT-videoTestVideo_video7112-shot4_4/img192.jpg,Images/MSR-VTT-videoTestVideo_video7112-shot4_4/img199.jpg,Images/MSR-VTT-videoTestVideo_video7112-shot4_4/img202.jpg,Images/MSR-VTT-videoTestVideo_video7112-shot4_4/img205.jpg,Images/MSR-VTT-videoTestVideo_video7112-shot4_4/img208.jpg,1612,2,0,2022-06-14_19h09.19.036,annotation,2021.2.3,Win32,59.99880002,,
,,,,,,,,,,,,,,,,,0.062037037,-0.15462963,1,0,0,image_7,0,7,7,23,1,285,The dog on the right has taken his hands away from his face and are at chest level palms facing inward toward his body. .  ,H,0,7,video-storytelling-videobirthday__amwPjAcoC8-shot42_0,Images/video-storytelling-videobirthday__amwPjAcoC8-shot42_0/img0.jpg,Images/video-storytelling-videobirthday__amwPjAcoC8-shot42_0/img2.jpg,Images/video-storytelling-videobirthday__amwPjAcoC8-shot42_0/img5.jpg,Images/video-storytelling-videobirthday__amwPjAcoC8-shot42_0/img8.jpg,Images/video-storytelling-videobirthday__amwPjAcoC8-shot42_0/img14.jpg,Images/video-storytelling-videobirthday__amwPjAcoC8-shot42_0/img23.jpg,Images/video-storytelling-videobirthday__amwPjAcoC8-shot42_0/img25.jpg,Images/video-storytelling-videobirthday__amwPjAcoC8-shot42_0/img27.jpg,Images/video-storytelling-videobirthday__amwPjAcoC8-shot42_0/img29.jpg,Images/video-storytelling-videobirthday__amwPjAcoC8-shot42_0/img33.jpg,835,2,0,2022-06-14_19h09.19.036,annotation,2021.2.3,Win32,59.99880002,,
,,,,,,,,,,,,,,,,,0.026851852,0.136111111,1,0,0,image_2,0,8,8,11,1,1950,A bowl of food is being cooked on a stove top.,M,0,6,MSR-VTT-videoTestVideo_video7285-shot1_0,Images/MSR-VTT-videoTestVideo_video7285-shot1_0/img0.jpg,Images/MSR-VTT-videoTestVideo_video7285-shot1_0/img15.jpg,Images/MSR-VTT-videoTestVideo_video7285-shot1_0/img50.jpg,Images/MSR-VTT-videoTestVideo_video7285-shot1_0/img163.jpg,Images/MSR-VTT-videoTestVideo_video7285-shot1_0/img190.jpg,Images/MSR-VTT-videoTestVideo_video7285-shot1_0/img474.jpg,Images/MSR-VTT-videoTestVideo_video7285-shot1_0/img533.jpg,Images/MSR-VTT-videoTestVideo_video7285-shot1_0/img540.jpg,Images/MSR-VTT-videoTestVideo_video7285-shot1_0/img549.jpg,Images/MSR-VTT-videoTestVideo_video7285-shot1_0/img560.jpg,337,2,0,2022-06-14_19h09.19.036,annotation,2021.2.3,Win32,59.99880002,,
,,,,,,,,,,,,,,,,,-0.239814815,0.116666667,1,0,0,image_1,0,9,9,12,1,190,"Her right eye is barely visible, the edge cuts right through it.",H,1,1,video-storytelling-videocamping_dBXYM3dQTSo-shot55_3,Images/video-storytelling-videocamping_dBXYM3dQTSo-shot55_3/img268.jpg,Images/video-storytelling-videocamping_dBXYM3dQTSo-shot55_3/img270.jpg,Images/video-storytelling-videocamping_dBXYM3dQTSo-shot55_3/img275.jpg,Images/video-storytelling-videocamping_dBXYM3dQTSo-shot55_3/img278.jpg,Images/video-storytelling-videocamping_dBXYM3dQTSo-shot55_3/img281.jpg,Images/video-storytelling-videocamping_dBXYM3dQTSo-shot55_3/img286.jpg,Images/video-storytelling-videocamping_dBXYM3dQTSo-shot55_3/img293.jpg,Images/video-storytelling-videocamping_dBXYM3dQTSo-shot55_3/img301.jpg,Images/video-storytelling-videocamping_dBXYM3dQTSo-shot55_3/img308.jpg,Images/video-storytelling-videocamping_dBXYM3dQTSo-shot55_3/img316.jpg,1910,2,0,2022-06-14_19h09.19.036,annotation,2021.2.3,Win32,59.99880002,,
,,,,,,,,,,,,,,,,,-0.012962963,0.137962963,1,0,0,image_2,0,10,10,15,1,761,The pink character is right in the middle of the picture. There is purple smoke on the left side from the bottom corner to half way up.,H,0,2,MSR-VTT-videoTestVideo_video8027-shot1_1,Images/MSR-VTT-videoTestVideo_video8027-shot1_1/img74.jpg,Images/MSR-VTT-videoTestVideo_video8027-shot1_1/img75.jpg,Images/MSR-VTT-videoTestVideo_video8027-shot1_1/img78.jpg,Images/MSR-VTT-videoTestVideo_video8027-shot1_1/img84.jpg,Images/MSR-VTT-videoTestVideo_video8027-shot1_1/img86.jpg,Images/MSR-VTT-videoTestVideo_video8027-shot1_1/img90.jpg,Images/MSR-VTT-videoTestVideo_video8027-shot1_1/img94.jpg,Images/MSR-VTT-videoTestVideo_video8027-shot1_1/img98.jpg,Images/MSR-VTT-videoTestVideo_video8027-shot1_1/img140.jpg,Images/MSR-VTT-videoTestVideo_video8027-shot1_1/img159.jpg,794,2,0,2022-06-14_19h09.19.036,annotation,2021.2.3,Win32,59.99880002,,
,,,,,,,,,,,,,,,,,-0.00462963,0.143518519,1,0,0,image_2,0,11,11,61,1,3,A grey elephant with golden leaves on it. ,H,,2,open-images-1745_0ed62fe71809b2f5,Checks/check4/open-images-2609_3f72daeb23764ecfimg6.jpg,Checks/check4/open-images-1928_60679e2899870e08img1.jpg,Checks/check4/open-images-1745_0ed62fe71809b2f5img2.jpg,Checks/check4/open-images-1811_9ae6351c7f7565edimg0.jpg,Checks/check4/open-images-1721_6f04da11945ea492img3.jpg,Checks/check4/open-images-1907_5f9be3e4ea5e22c7img2.jpg,Checks/check4/open-images-580_0ddffb9c25141999img1.jpg,Checks/check4/open-images-2924_0645dcbcf998fed9img3.jpg,Checks/check4/open-images-869_856ecbcb5faf76e3img8.jpg,Checks/check4/open-images-250_02039517e63a91fbimg1.jpg,,,1,2022-06-14_19h09.19.036,annotation,2021.2.3,Win32,59.99880002,,
,,,,,,,,,,,,,,,,,-0.522222222,0.155555556,1,0,0,image_0,0,12,12,48,1,925,The boy has just begun unwrapping the present,H,0,0,video-storytelling-videobirthday__amwPjAcoC8-shot35_0,Images/video-storytelling-videobirthday__amwPjAcoC8-shot35_0/img0.jpg,Images/video-storytelling-videobirthday__amwPjAcoC8-shot35_0/img3.jpg,Images/video-storytelling-videobirthday__amwPjAcoC8-shot35_0/img7.jpg,Images/video-storytelling-videobirthday__amwPjAcoC8-shot35_0/img9.jpg,Images/video-storytelling-videobirthday__amwPjAcoC8-shot35_0/img11.jpg,Images/video-storytelling-videobirthday__amwPjAcoC8-shot35_0/img12.jpg,Images/video-storytelling-videobirthday__amwPjAcoC8-shot35_0/img13.jpg,Images/video-storytelling-videobirthday__amwPjAcoC8-shot35_0/img16.jpg,Images/video-storytelling-videobirthday__amwPjAcoC8-shot35_0/img20.jpg,Images/video-storytelling-videobirthday__amwPjAcoC8-shot35_0/img24.jpg,1701,2,0,2022-06-14_19h09.19.036,annotation,2021.2.3,Win32,59.99880002,,
,,,,,,,,,,,,,,,,,-0.525925926,0.125,1,0,0,image_0,0,13,13,44,1,1717,A blurry image of a man standing next to a kite.,M,0,4,MSR-VTT-videoTestVideo_video9842-shot1_0,Images/MSR-VTT-videoTestVideo_video9842-shot1_0/img0.jpg,Images/MSR-VTT-videoTestVideo_video9842-shot1_0/img23.jpg,Images/MSR-VTT-videoTestVideo_video9842-shot1_0/img118.jpg,Images/MSR-VTT-videoTestVideo_video9842-shot1_0/img121.jpg,Images/MSR-VTT-videoTestVideo_video9842-shot1_0/img129.jpg,Images/MSR-VTT-videoTestVideo_video9842-shot1_0/img137.jpg,Images/MSR-VTT-videoTestVideo_video9842-shot1_0/img172.jpg,Images/MSR-VTT-videoTestVideo_video9842-shot1_0/img204.jpg,Images/MSR-VTT-videoTestVideo_video9842-shot1_0/img224.jpg,Images/MSR-VTT-videoTestVideo_video9842-shot1_0/img244.jpg,1961,2,0,2022-06-14_19h09.19.036,annotation,2021.2.3,Win32,59.99880002,,
,,,,,,,,,,,,,,,,,-0.00462963,0.136111111,1,0,0,image_2,0,14,14,35,1,1568,A little boy and a little girl standing next to a statue.,M,0,9,video-storytelling-videowedding_46xhFCXBMJs-shot60_0,Images/video-storytelling-videowedding_46xhFCXBMJs-shot60_0/img0.jpg,Images/video-storytelling-videowedding_46xhFCXBMJs-shot60_0/img3.jpg,Images/video-storytelling-videowedding_46xhFCXBMJs-shot60_0/img10.jpg,Images/video-storytelling-videowedding_46xhFCXBMJs-shot60_0/img17.jpg,Images/video-storytelling-videowedding_46xhFCXBMJs-shot60_0/img22.jpg,Images/video-storytelling-videowedding_46xhFCXBMJs-shot60_0/img27.jpg,Images/video-storytelling-videowedding_46xhFCXBMJs-shot60_0/img34.jpg,Images/video-storytelling-videowedding_46xhFCXBMJs-shot60_0/img41.jpg,Images/video-storytelling-videowedding_46xhFCXBMJs-shot60_0/img45.jpg,Images/video-storytelling-videowedding_46xhFCXBMJs-shot60_0/img50.jpg,1075,2,0,2022-06-14_19h09.19.036,annotation,2021.2.3,Win32,59.99880002,,
,,,,,,,,,,,,,,,,,0.250925926,0.126851852,1,0,0,image_3,0,15,15,32,1,160,The person is in a flip. The position of the body looks like he is hanging upside down with arms together. ,H,0,3,MSR-VTT-videoTestVideo_video9623-shot1_2,Images/MSR-VTT-videoTestVideo_video9623-shot1_2/img149.jpg,Images/MSR-VTT-videoTestVideo_video9623-shot1_2/img151.jpg,Images/MSR-VTT-videoTestVideo_video9623-shot1_2/img154.jpg,Images/MSR-VTT-videoTestVideo_video9623-shot1_2/img158.jpg,Images/MSR-VTT-videoTestVideo_video9623-shot1_2/img165.jpg,Images/MSR-VTT-videoTestVideo_video9623-shot1_2/img166.jpg,Images/MSR-VTT-videoTestVideo_video9623-shot1_2/img168.jpg,Images/MSR-VTT-videoTestVideo_video9623-shot1_2/img173.jpg,Images/MSR-VTT-videoTestVideo_video9623-shot1_2/img174.jpg,Images/MSR-VTT-videoTestVideo_video9623-shot1_2/img175.jpg,2050,2,0,2022-06-14_19h09.19.036,annotation,2021.2.3,Win32,59.99880002,,
,,,,,,,,,,,,,,,,,-0.514814815,0.143518519,1,0,0,image_0,0,16,16,49,1,1543,A baby sucking on a cup of coffee in a living room.,M,1,5,video-storytelling-videochristmas_5RR_sRzKODA-shot30_8,Images/video-storytelling-videochristmas_5RR_sRzKODA-shot30_8/img426.jpg,Images/video-storytelling-videochristmas_5RR_sRzKODA-shot30_8/img430.jpg,Images/video-storytelling-videochristmas_5RR_sRzKODA-shot30_8/img431.jpg,Images/video-storytelling-videochristmas_5RR_sRzKODA-shot30_8/img432.jpg,Images/video-storytelling-videochristmas_5RR_sRzKODA-shot30_8/img435.jpg,Images/video-storytelling-videochristmas_5RR_sRzKODA-shot30_8/img436.jpg,Images/video-storytelling-videochristmas_5RR_sRzKODA-shot30_8/img439.jpg,Images/video-storytelling-videochristmas_5RR_sRzKODA-shot30_8/img440.jpg,Images/video-storytelling-videochristmas_5RR_sRzKODA-shot30_8/img445.jpg,Images/video-storytelling-videochristmas_5RR_sRzKODA-shot30_8/img449.jpg,358,2,0,2022-06-14_19h09.19.036,annotation,2021.2.3,Win32,59.99880002,,
,,,,,,,,,,,,,,,,,0.491666667,-0.181481481,1,0,0,image_9,0,17,17,25,1,1545,A man and woman sitting in the back seat of a car.,M,1,2,MSR-VTT-videoTestVideo_video8971-shot1_1,Images/MSR-VTT-videoTestVideo_video8971-shot1_1/img126.jpg,Images/MSR-VTT-videoTestVideo_video8971-shot1_1/img139.jpg,Images/MSR-VTT-videoTestVideo_video8971-shot1_1/img155.jpg,Images/MSR-VTT-videoTestVideo_video8971-shot1_1/img167.jpg,Images/MSR-VTT-videoTestVideo_video8971-shot1_1/img183.jpg,Images/MSR-VTT-videoTestVideo_video8971-shot1_1/img198.jpg,Images/MSR-VTT-videoTestVideo_video8971-shot1_1/img229.jpg,Images/MSR-VTT-videoTestVideo_video8971-shot1_1/img247.jpg,Images/MSR-VTT-videoTestVideo_video8971-shot1_1/img260.jpg,Images/MSR-VTT-videoTestVideo_video8971-shot1_1/img266.jpg,1379,2,0,2022-06-14_19h09.19.036,annotation,2021.2.3,Win32,59.99880002,,
,,,,,,,,,,,,,,,,,-0.5,-0.125925926,1,0,0,image_5,0,18,18,38,1,940,The spoon is covered with potatoes but you can still see some of the side of the spoon. It's all in the center of the pan. ,H,1,5,MSR-VTT-videoTestVideo_video7924-shot1_0,Images/MSR-VTT-videoTestVideo_video7924-shot1_0/img0.jpg,Images/MSR-VTT-videoTestVideo_video7924-shot1_0/img5.jpg,Images/MSR-VTT-videoTestVideo_video7924-shot1_0/img11.jpg,Images/MSR-VTT-videoTestVideo_video7924-shot1_0/img42.jpg,Images/MSR-VTT-videoTestVideo_video7924-shot1_0/img80.jpg,Images/MSR-VTT-videoTestVideo_video7924-shot1_0/img116.jpg,Images/MSR-VTT-videoTestVideo_video7924-shot1_0/img122.jpg,Images/MSR-VTT-videoTestVideo_video7924-shot1_0/img167.jpg,Images/MSR-VTT-videoTestVideo_video7924-shot1_0/img170.jpg,Images/MSR-VTT-videoTestVideo_video7924-shot1_0/img177.jpg,25,2,0,2022-06-14_19h09.19.036,annotation,2021.2.3,Win32,59.99880002,,
,,,,,,,,,,,,,,,,,0.524074074,0.111111111,1,0,0,image_4,0,19,19,31,1,421,The top of the dog's eyes are just cut off by the top edge.The dog's left eye is cut off just before the brown iris.,H,0,4,video-storytelling-videobirthday__amwPjAcoC8-shot80_3,Images/video-storytelling-videobirthday__amwPjAcoC8-shot80_3/img116.jpg,Images/video-storytelling-videobirthday__amwPjAcoC8-shot80_3/img122.jpg,Images/video-storytelling-videobirthday__amwPjAcoC8-shot80_3/img127.jpg,Images/video-storytelling-videobirthday__amwPjAcoC8-shot80_3/img131.jpg,Images/video-storytelling-videobirthday__amwPjAcoC8-shot80_3/img135.jpg,Images/video-storytelling-videobirthday__amwPjAcoC8-shot80_3/img145.jpg,Images/video-storytelling-videobirthday__amwPjAcoC8-shot80_3/img160.jpg,Images/video-storytelling-videobirthday__amwPjAcoC8-shot80_3/img163.jpg,Images/video-storytelling-videobirthday__amwPjAcoC8-shot80_3/img174.jpg,Images/video-storytelling-videobirthday__amwPjAcoC8-shot80_3/img195.jpg,1070,2,0,2022-06-14_19h09.19.036,annotation,2021.2.3,Win32,59.99880002,,
,,,,,,,,,,,,,,,,,-0.493518519,0.113888889,1,0,0,image_0,0,20,20,53,1,1102,A woman standing on top of a basketball rack.,M,0,7,MSR-VTT-videoTestVideo_video9044-shot1_0,Images/MSR-VTT-videoTestVideo_video9044-shot1_0/img0.jpg,Images/MSR-VTT-videoTestVideo_video9044-shot1_0/img3.jpg,Images/MSR-VTT-videoTestVideo_video9044-shot1_0/img6.jpg,Images/MSR-VTT-videoTestVideo_video9044-shot1_0/img8.jpg,Images/MSR-VTT-videoTestVideo_video9044-shot1_0/img11.jpg,Images/MSR-VTT-videoTestVideo_video9044-shot1_0/img15.jpg,Images/MSR-VTT-videoTestVideo_video9044-shot1_0/img21.jpg,Images/MSR-VTT-videoTestVideo_video9044-shot1_0/img31.jpg,Images/MSR-VTT-videoTestVideo_video9044-shot1_0/img41.jpg,Images/MSR-VTT-videoTestVideo_video9044-shot1_0/img54.jpg,426,2,0,2022-06-14_19h09.19.036,annotation,2021.2.3,Win32,59.99880002,,
,,,,,,,,,,,,,,,,,-0.526851852,0.133333333,1,0,0,image_0,0,21,21,36,1,1174,A little girl playing with toys in a room.,M,1,2,video-storytelling-videobirthday__amwPjAcoC8-shot14_1,Images/video-storytelling-videobirthday__amwPjAcoC8-shot14_1/img27.jpg,Images/video-storytelling-videobirthday__amwPjAcoC8-shot14_1/img30.jpg,Images/video-storytelling-videobirthday__amwPjAcoC8-shot14_1/img32.jpg,Images/video-storytelling-videobirthday__amwPjAcoC8-shot14_1/img35.jpg,Images/video-storytelling-videobirthday__amwPjAcoC8-shot14_1/img38.jpg,Images/video-storytelling-videobirthday__amwPjAcoC8-shot14_1/img41.jpg,Images/video-storytelling-videobirthday__amwPjAcoC8-shot14_1/img43.jpg,Images/video-storytelling-videobirthday__amwPjAcoC8-shot14_1/img45.jpg,Images/video-storytelling-videobirthday__amwPjAcoC8-shot14_1/img47.jpg,Images/video-storytelling-videobirthday__amwPjAcoC8-shot14_1/img51.jpg,653,2,0,2022-06-14_19h09.19.036,annotation,2021.2.3,Win32,59.99880002,,
,,,,,,,,,,,,,,,,,-0.243518519,-0.187962963,1,0,0,image_6,0,22,22,10,1,1923,A bowl filled with fruit and vegetables on a table.,M,1,5,YouCook-video0034-shot18_0,Images/YouCook-video0034-shot18_0/img0.jpg,Images/YouCook-video0034-shot18_0/img32.jpg,Images/YouCook-video0034-shot18_0/img100.jpg,Images/YouCook-video0034-shot18_0/img164.jpg,Images/YouCook-video0034-shot18_0/img172.jpg,Images/YouCook-video0034-shot18_0/img200.jpg,Images/YouCook-video0034-shot18_0/img215.jpg,Images/YouCook-video0034-shot18_0/img236.jpg,Images/YouCook-video0034-shot18_0/img250.jpg,Images/YouCook-video0034-shot18_0/img294.jpg,537,2,0,2022-06-14_19h09.19.036,annotation,2021.2.3,Win32,59.99880002,,
,,,,,,,,,,,,,,,,,-0.487962963,-0.152777778,1,0,0,image_5,0,23,23,59,1,1,The only picture of a hawk.  It is looking to the left.  You see lots of branches and darker blue sky. ,H,,5,open-images-958_686caac9c5b322e7,Checks/check2/open-images-2603_1b5152f01f0093e7img3.jpg,Checks/check2/open-images-1836_069810916ce5d675img8.jpg,Checks/check2/open-images-974_0748fdedc4bf8b7bimg2.jpg,Checks/check2/open-images-617_01fb725fb1aa7b04img6.jpg,Checks/check2/open-images-507_047769e1f977cd97img2.jpg,Checks/check2/open-images-958_686caac9c5b322e7img5.jpg,Checks/check2/open-images-1278_21851d9bf5dc05c9img7.jpg,Checks/check2/open-images-2424_05f04546e01499f2img0.jpg,Checks/check2/open-images-1529_1442b11a10a6aeadimg3.jpg,Checks/check2/open-images-514_2c523ddedc2561d4img1.jpg,,,1,2022-06-14_19h09.19.036,annotation,2021.2.3,Win32,59.99880002,,
,,,,,,,,,,,,,,,,,0.508333333,-0.182407407,1,0,0,image_9,0,24,24,29,1,2065,A piece of bread sticking out of a piece of cake.,M,0,3,YouCook-video0008-shot8_1,Images/YouCook-video0008-shot8_1/img70.jpg,Images/YouCook-video0008-shot8_1/img111.jpg,Images/YouCook-video0008-shot8_1/img112.jpg,Images/YouCook-video0008-shot8_1/img119.jpg,Images/YouCook-video0008-shot8_1/img122.jpg,Images/YouCook-video0008-shot8_1/img125.jpg,Images/YouCook-video0008-shot8_1/img126.jpg,Images/YouCook-video0008-shot8_1/img144.jpg,Images/YouCook-video0008-shot8_1/img147.jpg,Images/YouCook-video0008-shot8_1/img165.jpg,53,2,0,2022-06-14_19h09.19.036,annotation,2021.2.3,Win32,59.99880002,,
,,,,,,,,,,,,,,,,,-0.005555556,-0.190740741,1,0,0,image_7,0,25,25,14,1,927,The girl has her mouth slightly open and she is looking to the left.  She is holding a towel and a brown item.  Her eyes are completely visible. You can see only one thumb or finger.  ,H,0,7,video-storytelling-videocamping_dBXYM3dQTSo-shot55_1,Images/video-storytelling-videocamping_dBXYM3dQTSo-shot55_1/img64.jpg,Images/video-storytelling-videocamping_dBXYM3dQTSo-shot55_1/img103.jpg,Images/video-storytelling-videocamping_dBXYM3dQTSo-shot55_1/img138.jpg,Images/video-storytelling-videocamping_dBXYM3dQTSo-shot55_1/img151.jpg,Images/video-storytelling-videocamping_dBXYM3dQTSo-shot55_1/img162.jpg,Images/video-storytelling-videocamping_dBXYM3dQTSo-shot55_1/img177.jpg,Images/video-storytelling-videocamping_dBXYM3dQTSo-shot55_1/img180.jpg,Images/video-storytelling-videocamping_dBXYM3dQTSo-shot55_1/img193.jpg,Images/video-storytelling-videocamping_dBXYM3dQTSo-shot55_1/img202.jpg,Images/video-storytelling-videocamping_dBXYM3dQTSo-shot55_1/img205.jpg,1311,2,0,2022-06-14_19h09.19.036,annotation,2021.2.3,Win32,59.99880002,,
,,,,,,,,,,,,,,,,,-0.019444444,-0.166666667,1,0,0,image_7,0,26,26,54,1,348,You can see the tongue of the man in gray.,H,0,7,MSR-VTT-videoTestVideo_video9229-shot0_0,Images/MSR-VTT-videoTestVideo_video9229-shot0_0/img0.jpg,Images/MSR-VTT-videoTestVideo_video9229-shot0_0/img9.jpg,Images/MSR-VTT-videoTestVideo_video9229-shot0_0/img11.jpg,Images/MSR-VTT-videoTestVideo_video9229-shot0_0/img13.jpg,Images/MSR-VTT-videoTestVideo_video9229-shot0_0/img16.jpg,Images/MSR-VTT-videoTestVideo_video9229-shot0_0/img18.jpg,Images/MSR-VTT-videoTestVideo_video9229-shot0_0/img21.jpg,Images/MSR-VTT-videoTestVideo_video9229-shot0_0/img45.jpg,Images/MSR-VTT-videoTestVideo_video9229-shot0_0/img87.jpg,Images/MSR-VTT-videoTestVideo_video9229-shot0_0/img105.jpg,244,2,0,2022-06-14_19h09.19.036,annotation,2021.2.3,Win32,59.99880002,,
,,,,,,,,,,,,,,,,,-0.494444444,0.165740741,1,0,0,image_0,0,27,27,28,1,606,The very top of the object in the person's hands is off the top edge of the image. ,H,0,0,MSR-VTT-videoTestVideo_video8679-shot1_4,Images/MSR-VTT-videoTestVideo_video8679-shot1_4/img94.jpg,Images/MSR-VTT-videoTestVideo_video8679-shot1_4/img95.jpg,Images/MSR-VTT-videoTestVideo_video8679-shot1_4/img96.jpg,Images/MSR-VTT-videoTestVideo_video8679-shot1_4/img99.jpg,Images/MSR-VTT-videoTestVideo_video8679-shot1_4/img107.jpg,Images/MSR-VTT-videoTestVideo_video8679-shot1_4/img110.jpg,Images/MSR-VTT-videoTestVideo_video8679-shot1_4/img112.jpg,Images/MSR-VTT-videoTestVideo_video8679-shot1_4/img116.jpg,Images/MSR-VTT-videoTestVideo_video8679-shot1_4/img119.jpg,Images/MSR-VTT-videoTestVideo_video8679-shot1_4/img120.jpg,1608,2,0,2022-06-14_19h09.19.036,annotation,2021.2.3,Win32,59.99880002,,
,,,,,,,,,,,,,,,,,-0.47962963,-0.184259259,1,0,0,image_5,0,28,28,47,1,184,A young man is standing as straight as possible with his hands in front of him most of his head and ear are not visable.,H,0,4,MSR-VTT-videoTestVideo_video8700-shot3_2,Images/MSR-VTT-videoTestVideo_video8700-shot3_2/img143.jpg,Images/MSR-VTT-videoTestVideo_video8700-shot3_2/img146.jpg,Images/MSR-VTT-videoTestVideo_video8700-shot3_2/img152.jpg,Images/MSR-VTT-videoTestVideo_video8700-shot3_2/img157.jpg,Images/MSR-VTT-videoTestVideo_video8700-shot3_2/img162.jpg,Images/MSR-VTT-videoTestVideo_video8700-shot3_2/img168.jpg,Images/MSR-VTT-videoTestVideo_video8700-shot3_2/img172.jpg,Images/MSR-VTT-videoTestVideo_video8700-shot3_2/img178.jpg,Images/MSR-VTT-videoTestVideo_video8700-shot3_2/img182.jpg,Images/MSR-VTT-videoTestVideo_video8700-shot3_2/img186.jpg,315,2,0,2022-06-14_19h09.19.036,annotation,2021.2.3,Win32,59.99880002,,
,,,,,,,,,,,,,,,,,0.016666667,-0.158333333,1,0,0,image_7,0,29,29,2,1,889,There is a slight image overly.  The running man has his left elbow at the hip of the man with the stripe sweater.,H,0,6,MSR-VTT-videoTestVideo_video7256-shot0_0,Images/MSR-VTT-videoTestVideo_video7256-shot0_0/img0.jpg,Images/MSR-VTT-videoTestVideo_video7256-shot0_0/img4.jpg,Images/MSR-VTT-videoTestVideo_video7256-shot0_0/img7.jpg,Images/MSR-VTT-videoTestVideo_video7256-shot0_0/img10.jpg,Images/MSR-VTT-videoTestVideo_video7256-shot0_0/img13.jpg,Images/MSR-VTT-videoTestVideo_video7256-shot0_0/img20.jpg,Images/MSR-VTT-videoTestVideo_video7256-shot0_0/img29.jpg,Images/MSR-VTT-videoTestVideo_video7256-shot0_0/img31.jpg,Images/MSR-VTT-videoTestVideo_video7256-shot0_0/img33.jpg,Images/MSR-VTT-videoTestVideo_video7256-shot0_0/img37.jpg,1755,2,0,2022-06-14_19h09.19.036,annotation,2021.2.3,Win32,59.99880002,,
,,,,,,,,,,,,,,,,,-0.247222222,0.123148148,1,0,0,image_1,0,30,30,16,1,1361,A woman sitting next to a cat on a bed.,M,0,1,MSR-VTT-videoTestVideo_video9969-shot1_1,Images/MSR-VTT-videoTestVideo_video9969-shot1_1/img147.jpg,Images/MSR-VTT-videoTestVideo_video9969-shot1_1/img162.jpg,Images/MSR-VTT-videoTestVideo_video9969-shot1_1/img173.jpg,Images/MSR-VTT-videoTestVideo_video9969-shot1_1/img188.jpg,Images/MSR-VTT-videoTestVideo_video9969-shot1_1/img199.jpg,Images/MSR-VTT-videoTestVideo_video9969-shot1_1/img255.jpg,Images/MSR-VTT-videoTestVideo_video9969-shot1_1/img277.jpg,Images/MSR-VTT-videoTestVideo_video9969-shot1_1/img297.jpg,Images/MSR-VTT-videoTestVideo_video9969-shot1_1/img319.jpg,Images/MSR-VTT-videoTestVideo_video9969-shot1_1/img355.jpg,601,2,0,2022-06-14_19h09.19.036,annotation,2021.2.3,Win32,59.99880002,,
,,,,,,,,,,,,,,,,,0.019444444,0.089814815,1,0,0,image_2,0,31,31,20,1,1153,A couple of women sitting on a couch.,M,0,2,MSR-VTT-videoTestVideo_video9969-shot1_0,Images/MSR-VTT-videoTestVideo_video9969-shot1_0/img0.jpg,Images/MSR-VTT-videoTestVideo_video9969-shot1_0/img1.jpg,Images/MSR-VTT-videoTestVideo_video9969-shot1_0/img2.jpg,Images/MSR-VTT-videoTestVideo_video9969-shot1_0/img4.jpg,Images/MSR-VTT-videoTestVideo_video9969-shot1_0/img5.jpg,Images/MSR-VTT-videoTestVideo_video9969-shot1_0/img18.jpg,Images/MSR-VTT-videoTestVideo_video9969-shot1_0/img41.jpg,Images/MSR-VTT-videoTestVideo_video9969-shot1_0/img60.jpg,Images/MSR-VTT-videoTestVideo_video9969-shot1_0/img108.jpg,Images/MSR-VTT-videoTestVideo_video9969-shot1_0/img146.jpg,1875,2,0,2022-06-14_19h09.19.036,annotation,2021.2.3,Win32,59.99880002,,
,,,,,,,,,,,,,,,,,-0.255555556,-0.175,1,0,0,image_6,0,32,32,46,1,1716,A person is posing for a picture with a stuffed animal.,M,1,9,video-storytelling-videobirthday__amwPjAcoC8-shot29_0,Images/video-storytelling-videobirthday__amwPjAcoC8-shot29_0/img0.jpg,Images/video-storytelling-videobirthday__amwPjAcoC8-shot29_0/img19.jpg,Images/video-storytelling-videobirthday__amwPjAcoC8-shot29_0/img56.jpg,Images/video-storytelling-videobirthday__amwPjAcoC8-shot29_0/img81.jpg,Images/video-storytelling-videobirthday__amwPjAcoC8-shot29_0/img86.jpg,Images/video-storytelling-videobirthday__amwPjAcoC8-shot29_0/img93.jpg,Images/video-storytelling-videobirthday__amwPjAcoC8-shot29_0/img105.jpg,Images/video-storytelling-videobirthday__amwPjAcoC8-shot29_0/img111.jpg,Images/video-storytelling-videobirthday__amwPjAcoC8-shot29_0/img119.jpg,Images/video-storytelling-videobirthday__amwPjAcoC8-shot29_0/img130.jpg,893,2,0,2022-06-14_19h09.19.036,annotation,2021.2.3,Win32,59.99880002,,
,,,,,,,,,,,,,,,,,0.257407407,-0.197222222,1,0,0,image_8,0,33,33,45,1,47,There are two green blurs and one purple blur that is almost cut off on the right side.,H,1,8,MSR-VTT-videoTestVideo_video7485-shot2_1,Images/MSR-VTT-videoTestVideo_video7485-shot2_1/img44.jpg,Images/MSR-VTT-videoTestVideo_video7485-shot2_1/img45.jpg,Images/MSR-VTT-videoTestVideo_video7485-shot2_1/img55.jpg,Images/MSR-VTT-videoTestVideo_video7485-shot2_1/img65.jpg,Images/MSR-VTT-videoTestVideo_video7485-shot2_1/img71.jpg,Images/MSR-VTT-videoTestVideo_video7485-shot2_1/img80.jpg,Images/MSR-VTT-videoTestVideo_video7485-shot2_1/img84.jpg,Images/MSR-VTT-videoTestVideo_video7485-shot2_1/img87.jpg,Images/MSR-VTT-videoTestVideo_video7485-shot2_1/img92.jpg,Images/MSR-VTT-videoTestVideo_video7485-shot2_1/img96.jpg,1114,2,0,2022-06-14_19h09.19.036,annotation,2021.2.3,Win32,59.99880002,,
,,,,,,,,,,,,,,,,,-0.255555556,-0.201851852,1,0,0,image_6,0,34,34,50,1,1911,A group of people walking around a building.,M,0,6,MSR-VTT-videoTestVideo_video7522-shot5_1,Images/MSR-VTT-videoTestVideo_video7522-shot5_1/img23.jpg,Images/MSR-VTT-videoTestVideo_video7522-shot5_1/img25.jpg,Images/MSR-VTT-videoTestVideo_video7522-shot5_1/img28.jpg,Images/MSR-VTT-videoTestVideo_video7522-shot5_1/img30.jpg,Images/MSR-VTT-videoTestVideo_video7522-shot5_1/img34.jpg,Images/MSR-VTT-videoTestVideo_video7522-shot5_1/img40.jpg,Images/MSR-VTT-videoTestVideo_video7522-shot5_1/img42.jpg,Images/MSR-VTT-videoTestVideo_video7522-shot5_1/img45.jpg,Images/MSR-VTT-videoTestVideo_video7522-shot5_1/img48.jpg,Images/MSR-VTT-videoTestVideo_video7522-shot5_1/img53.jpg,1473,2,0,2022-06-14_19h09.19.036,annotation,2021.2.3,Win32,59.99880002,,
,,,,,,,,,,,,,,,,,-0.243518519,-0.177777778,1,0,0,image_6,0,35,35,8,1,397,The grass area in the lower left corner has disappeared.  You can just start to see both of the licence plates on the cars. ,H,0,6,MSR-VTT-videoTestVideo_video8026-shot1_4,Images/MSR-VTT-videoTestVideo_video8026-shot1_4/img240.jpg,Images/MSR-VTT-videoTestVideo_video8026-shot1_4/img250.jpg,Images/MSR-VTT-videoTestVideo_video8026-shot1_4/img266.jpg,Images/MSR-VTT-videoTestVideo_video8026-shot1_4/img272.jpg,Images/MSR-VTT-videoTestVideo_video8026-shot1_4/img286.jpg,Images/MSR-VTT-videoTestVideo_video8026-shot1_4/img289.jpg,Images/MSR-VTT-videoTestVideo_video8026-shot1_4/img293.jpg,Images/MSR-VTT-videoTestVideo_video8026-shot1_4/img298.jpg,Images/MSR-VTT-videoTestVideo_video8026-shot1_4/img301.jpg,Images/MSR-VTT-videoTestVideo_video8026-shot1_4/img306.jpg,1759,2,0,2022-06-14_19h09.19.036,annotation,2021.2.3,Win32,59.99880002,,
,,,,,,,,,,,,,,,,,-0.471296296,0.084259259,1,0,0,image_0,0,36,36,39,1,1235,A person holding a bowl of food in front of a frying pan.,M,0,3,MSR-VTT-videoTestVideo_video7165-shot1_0,Images/MSR-VTT-videoTestVideo_video7165-shot1_0/img0.jpg,Images/MSR-VTT-videoTestVideo_video7165-shot1_0/img10.jpg,Images/MSR-VTT-videoTestVideo_video7165-shot1_0/img12.jpg,Images/MSR-VTT-videoTestVideo_video7165-shot1_0/img45.jpg,Images/MSR-VTT-videoTestVideo_video7165-shot1_0/img80.jpg,Images/MSR-VTT-videoTestVideo_video7165-shot1_0/img88.jpg,Images/MSR-VTT-videoTestVideo_video7165-shot1_0/img92.jpg,Images/MSR-VTT-videoTestVideo_video7165-shot1_0/img100.jpg,Images/MSR-VTT-videoTestVideo_video7165-shot1_0/img149.jpg,Images/MSR-VTT-videoTestVideo_video7165-shot1_0/img475.jpg,879,2,0,2022-06-14_19h09.19.036,annotation,2021.2.3,Win32,59.99880002,,
,,,,,,,,,,,,,,,,,0.010185185,0.121296296,1,0,0,image_2,0,37,37,57,1,261,Only the right ear of the guy in back can be seen. Guy in front has mouth closed,H,0,2,video-storytelling-videobirthday_fwpYnUDbusw-shot28_0,Images/video-storytelling-videobirthday_fwpYnUDbusw-shot28_0/img0.jpg,Images/video-storytelling-videobirthday_fwpYnUDbusw-shot28_0/img1.jpg,Images/video-storytelling-videobirthday_fwpYnUDbusw-shot28_0/img3.jpg,Images/video-storytelling-videobirthday_fwpYnUDbusw-shot28_0/img4.jpg,Images/video-storytelling-videobirthday_fwpYnUDbusw-shot28_0/img7.jpg,Images/video-storytelling-videobirthday_fwpYnUDbusw-shot28_0/img12.jpg,Images/video-storytelling-videobirthday_fwpYnUDbusw-shot28_0/img15.jpg,Images/video-storytelling-videobirthday_fwpYnUDbusw-shot28_0/img18.jpg,Images/video-storytelling-videobirthday_fwpYnUDbusw-shot28_0/img19.jpg,Images/video-storytelling-videobirthday_fwpYnUDbusw-shot28_0/img20.jpg,69,2,0,2022-06-14_19h09.19.036,annotation,2021.2.3,Win32,59.99880002,,
,,,,,,,,,,,,,,,,,-0.513888889,-0.185185185,1,0,0,image_5,0,38,38,37,1,525,"There's a motorcycle on his left, and only the bumper, no wheels, of a truck is visible.",H,0,5,MSR-VTT-videoTestVideo_video7737-shot0_0,Images/MSR-VTT-videoTestVideo_video7737-shot0_0/img6.jpg,Images/MSR-VTT-videoTestVideo_video7737-shot0_0/img14.jpg,Images/MSR-VTT-videoTestVideo_video7737-shot0_0/img24.jpg,Images/MSR-VTT-videoTestVideo_video7737-shot0_0/img30.jpg,Images/MSR-VTT-videoTestVideo_video7737-shot0_0/img37.jpg,Images/MSR-VTT-videoTestVideo_video7737-shot0_0/img51.jpg,Images/MSR-VTT-videoTestVideo_video7737-shot0_0/img61.jpg,Images/MSR-VTT-videoTestVideo_video7737-shot0_0/img63.jpg,Images/MSR-VTT-videoTestVideo_video7737-shot0_0/img67.jpg,Images/MSR-VTT-videoTestVideo_video7737-shot0_0/img68.jpg,564,2,0,2022-06-14_19h09.19.036,annotation,2021.2.3,Win32,59.99880002,,
,,,,,,,,,,,,,,,,,0.492592593,0.14537037,1,0,0,image_4,0,39,39,5,1,38,A bald man's head covers a  lot of the crowd and signs in the background.,H,0,4,MSR-VTT-videoTestVideo_video7522-shot8_0,Images/MSR-VTT-videoTestVideo_video7522-shot8_0/img0.jpg,Images/MSR-VTT-videoTestVideo_video7522-shot8_0/img1.jpg,Images/MSR-VTT-videoTestVideo_video7522-shot8_0/img2.jpg,Images/MSR-VTT-videoTestVideo_video7522-shot8_0/img3.jpg,Images/MSR-VTT-videoTestVideo_video7522-shot8_0/img4.jpg,Images/MSR-VTT-videoTestVideo_video7522-shot8_0/img5.jpg,Images/MSR-VTT-videoTestVideo_video7522-shot8_0/img6.jpg,Images/MSR-VTT-videoTestVideo_video7522-shot8_0/img7.jpg,Images/MSR-VTT-videoTestVideo_video7522-shot8_0/img8.jpg,Images/MSR-VTT-videoTestVideo_video7522-shot8_0/img9.jpg,149,2,0,2022-06-14_19h09.19.036,annotation,2021.2.3,Win32,59.99880002,,
,,,,,,,,,,,,,,,,,-0.283333333,-0.166666667,1,0,0,image_6,0,40,40,52,1,895,"Baby's body is turning toward the right. She is bending her left leg, but her foot is still touching the ground.",H,1,6,video-storytelling-videochristmas_5RR_sRzKODA-shot23_0,Images/video-storytelling-videochristmas_5RR_sRzKODA-shot23_0/img0.jpg,Images/video-storytelling-videochristmas_5RR_sRzKODA-shot23_0/img2.jpg,Images/video-storytelling-videochristmas_5RR_sRzKODA-shot23_0/img14.jpg,Images/video-storytelling-videochristmas_5RR_sRzKODA-shot23_0/img53.jpg,Images/video-storytelling-videochristmas_5RR_sRzKODA-shot23_0/img77.jpg,Images/video-storytelling-videochristmas_5RR_sRzKODA-shot23_0/img86.jpg,Images/video-storytelling-videochristmas_5RR_sRzKODA-shot23_0/img91.jpg,Images/video-storytelling-videochristmas_5RR_sRzKODA-shot23_0/img93.jpg,Images/video-storytelling-videochristmas_5RR_sRzKODA-shot23_0/img126.jpg,Images/video-storytelling-videochristmas_5RR_sRzKODA-shot23_0/img136.jpg,749,2,0,2022-06-14_19h09.19.036,annotation,2021.2.3,Win32,59.99880002,,
,,,,,,,,,,,,,,,,,0.22037037,-0.169444444,1,0,0,image_8,0,41,41,3,1,483,The boy is slightly looking upwards and you can clearly see the man's left hand at the top of the hat,H,0,5,MSR-VTT-videoTestVideo_video9036-shot2_2,Images/MSR-VTT-videoTestVideo_video9036-shot2_2/img103.jpg,Images/MSR-VTT-videoTestVideo_video9036-shot2_2/img106.jpg,Images/MSR-VTT-videoTestVideo_video9036-shot2_2/img114.jpg,Images/MSR-VTT-videoTestVideo_video9036-shot2_2/img117.jpg,Images/MSR-VTT-videoTestVideo_video9036-shot2_2/img121.jpg,Images/MSR-VTT-videoTestVideo_video9036-shot2_2/img122.jpg,Images/MSR-VTT-videoTestVideo_video9036-shot2_2/img123.jpg,Images/MSR-VTT-videoTestVideo_video9036-shot2_2/img125.jpg,Images/MSR-VTT-videoTestVideo_video9036-shot2_2/img127.jpg,Images/MSR-VTT-videoTestVideo_video9036-shot2_2/img129.jpg,634,2,0,2022-06-14_19h09.19.036,annotation,2021.2.3,Win32,59.99880002,,
,,,,,,,,,,,,,,,,,-0.290740741,-0.192592593,1,0,0,image_6,0,42,42,42,1,962,The boy with the stocking cap is gone from the image.  You can still see both of the legs of the woman who has plaid pants on.  You can also still see most of her face but it is very blurry. ,H,0,7,video-storytelling-videochristmas_5RR_sRzKODA-shot30_12,Images/video-storytelling-videochristmas_5RR_sRzKODA-shot30_12/img545.jpg,Images/video-storytelling-videochristmas_5RR_sRzKODA-shot30_12/img549.jpg,Images/video-storytelling-videochristmas_5RR_sRzKODA-shot30_12/img555.jpg,Images/video-storytelling-videochristmas_5RR_sRzKODA-shot30_12/img570.jpg,Images/video-storytelling-videochristmas_5RR_sRzKODA-shot30_12/img576.jpg,Images/video-storytelling-videochristmas_5RR_sRzKODA-shot30_12/img582.jpg,Images/video-storytelling-videochristmas_5RR_sRzKODA-shot30_12/img584.jpg,Images/video-storytelling-videochristmas_5RR_sRzKODA-shot30_12/img585.jpg,Images/video-storytelling-videochristmas_5RR_sRzKODA-shot30_12/img586.jpg,Images/video-storytelling-videochristmas_5RR_sRzKODA-shot30_12/img587.jpg,1148,2,0,2022-06-14_19h09.19.036,annotation,2021.2.3,Win32,59.99880002,,
,,,,,,,,,,,,,,,,,0.002777778,0.081481481,1,0,0,image_2,0,43,43,27,1,1984,A bowl of food is being cooked in a pot.,M,0,5,MSR-VTT-videoTestVideo_video7924-shot1_0,Images/MSR-VTT-videoTestVideo_video7924-shot1_0/img0.jpg,Images/MSR-VTT-videoTestVideo_video7924-shot1_0/img5.jpg,Images/MSR-VTT-videoTestVideo_video7924-shot1_0/img11.jpg,Images/MSR-VTT-videoTestVideo_video7924-shot1_0/img42.jpg,Images/MSR-VTT-videoTestVideo_video7924-shot1_0/img80.jpg,Images/MSR-VTT-videoTestVideo_video7924-shot1_0/img116.jpg,Images/MSR-VTT-videoTestVideo_video7924-shot1_0/img122.jpg,Images/MSR-VTT-videoTestVideo_video7924-shot1_0/img167.jpg,Images/MSR-VTT-videoTestVideo_video7924-shot1_0/img170.jpg,Images/MSR-VTT-videoTestVideo_video7924-shot1_0/img177.jpg,1677,2,0,2022-06-14_19h09.19.036,annotation,2021.2.3,Win32,59.99880002,,
,,,,,,,,,,,,,,,,,-0.264814815,0.125,1,0,0,image_1,0,44,44,62,1,4,A penguin holding a piece of paper with text on it. ,H,,1,open-images-2521_074d6af730ed17a6,Checks/check5/open-images-509_4d8bd994cb8c6eaeimg0.jpg,Checks/check5/open-images-2521_074d6af730ed17a6img1.jpg,Checks/check5/open-images-1365_a00a5fde334ae45aimg4.jpg,Checks/check5/open-images-1602_44092afdeab39e73img6.jpg,Checks/check5/open-images-1032_059f3cdfb85ee0ceimg3.jpg,Checks/check5/open-images-727_25b77fff36adba66img2.jpg,Checks/check5/open-images-2208_0fb92b9978d98575img2.jpg,Checks/check5/open-images-1305_05769e6abb16fdc8img9.jpg,Checks/check5/open-images-2676_052dbf7b4899430bimg1.jpg,Checks/check5/open-images-2569_1e81d79bb796a2dbimg7.jpg,,,1,2022-06-14_19h09.19.036,annotation,2021.2.3,Win32,59.99880002,,
,,,,,,,,,,,,,,,,,-0.524074074,0.162037037,1,0,0,image_0,0,45,45,33,1,1308,A man riding a skate board in the air.,M,1,6,MSR-VTT-videoTestVideo_video8657-shot3_0,Images/MSR-VTT-videoTestVideo_video8657-shot3_0/img0.jpg,Images/MSR-VTT-videoTestVideo_video8657-shot3_0/img4.jpg,Images/MSR-VTT-videoTestVideo_video8657-shot3_0/img21.jpg,Images/MSR-VTT-videoTestVideo_video8657-shot3_0/img40.jpg,Images/MSR-VTT-videoTestVideo_video8657-shot3_0/img42.jpg,Images/MSR-VTT-videoTestVideo_video8657-shot3_0/img45.jpg,Images/MSR-VTT-videoTestVideo_video8657-shot3_0/img49.jpg,Images/MSR-VTT-videoTestVideo_video8657-shot3_0/img54.jpg,Images/MSR-VTT-videoTestVideo_video8657-shot3_0/img56.jpg,Images/MSR-VTT-videoTestVideo_video8657-shot3_0/img61.jpg,723,2,0,2022-06-14_19h09.19.036,annotation,2021.2.3,Win32,59.99880002,,
,,,,,,,,,,,,,,,,,0.199074074,-0.186111111,1,0,0,image_8,0,46,46,34,1,1353,A woman with a ponytail walking down a grassy path.,M,0,2,video-storytelling-videowedding_46xhFCXBMJs-shot88_0,Images/video-storytelling-videowedding_46xhFCXBMJs-shot88_0/img0.jpg,Images/video-storytelling-videowedding_46xhFCXBMJs-shot88_0/img4.jpg,Images/video-storytelling-videowedding_46xhFCXBMJs-shot88_0/img6.jpg,Images/video-storytelling-videowedding_46xhFCXBMJs-shot88_0/img8.jpg,Images/video-storytelling-videowedding_46xhFCXBMJs-shot88_0/img10.jpg,Images/video-storytelling-videowedding_46xhFCXBMJs-shot88_0/img13.jpg,Images/video-storytelling-videowedding_46xhFCXBMJs-shot88_0/img19.jpg,Images/video-storytelling-videowedding_46xhFCXBMJs-shot88_0/img20.jpg,Images/video-storytelling-videowedding_46xhFCXBMJs-shot88_0/img24.jpg,Images/video-storytelling-videowedding_46xhFCXBMJs-shot88_0/img26.jpg,725,2,0,2022-06-14_19h09.19.036,annotation,2021.2.3,Win32,59.99880002,,
,,,,,,,,,,,,,,,,,0.225,-0.182407407,1,0,0,image_8,0,47,47,22,1,358,"Man is bent over, right foot is facing 90 degrees right, blocking his left foot.",H,0,8,video-storytelling-videocamping_dBXYM3dQTSo-shot39_2,Images/video-storytelling-videocamping_dBXYM3dQTSo-shot39_2/img87.jpg,Images/video-storytelling-videocamping_dBXYM3dQTSo-shot39_2/img89.jpg,Images/video-storytelling-videocamping_dBXYM3dQTSo-shot39_2/img92.jpg,Images/video-storytelling-videocamping_dBXYM3dQTSo-shot39_2/img99.jpg,Images/video-storytelling-videocamping_dBXYM3dQTSo-shot39_2/img101.jpg,Images/video-storytelling-videocamping_dBXYM3dQTSo-shot39_2/img106.jpg,Images/video-storytelling-videocamping_dBXYM3dQTSo-shot39_2/img115.jpg,Images/video-storytelling-videocamping_dBXYM3dQTSo-shot39_2/img134.jpg,Images/video-storytelling-videocamping_dBXYM3dQTSo-shot39_2/img150.jpg,Images/video-storytelling-videocamping_dBXYM3dQTSo-shot39_2/img166.jpg,1801,2,0,2022-06-14_19h09.19.036,annotation,2021.2.3,Win32,59.99880002,,
,,,,,,,,,,,,,,,,,-0.017592593,-0.2,1,0,0,image_7,0,48,48,13,1,1108,A woman is standing with her hands up in the air.,M,0,3,MSR-VTT-videoTestVideo_video9241-shot1_0,Images/MSR-VTT-videoTestVideo_video9241-shot1_0/img0.jpg,Images/MSR-VTT-videoTestVideo_video9241-shot1_0/img3.jpg,Images/MSR-VTT-videoTestVideo_video9241-shot1_0/img10.jpg,Images/MSR-VTT-videoTestVideo_video9241-shot1_0/img14.jpg,Images/MSR-VTT-videoTestVideo_video9241-shot1_0/img16.jpg,Images/MSR-VTT-videoTestVideo_video9241-shot1_0/img23.jpg,Images/MSR-VTT-videoTestVideo_video9241-shot1_0/img27.jpg,Images/MSR-VTT-videoTestVideo_video9241-shot1_0/img40.jpg,Images/MSR-VTT-videoTestVideo_video9241-shot1_0/img52.jpg,Images/MSR-VTT-videoTestVideo_video9241-shot1_0/img56.jpg,1900,2,0,2022-06-14_19h09.19.036,annotation,2021.2.3,Win32,59.99880002,,
,,,,,,,,,,,,,,,,,-0.277777778,0.127777778,1,0,0,image_1,0,49,49,51,1,634,The man's left hand who is behind the woman is blocking most of the woman's face. ,H,0,1,MSR-VTT-videoTestVideo_video9211-shot1_0,Images/MSR-VTT-videoTestVideo_video9211-shot1_0/img0.jpg,Images/MSR-VTT-videoTestVideo_video9211-shot1_0/img2.jpg,Images/MSR-VTT-videoTestVideo_video9211-shot1_0/img6.jpg,Images/MSR-VTT-videoTestVideo_video9211-shot1_0/img9.jpg,Images/MSR-VTT-videoTestVideo_video9211-shot1_0/img14.jpg,Images/MSR-VTT-videoTestVideo_video9211-shot1_0/img17.jpg,Images/MSR-VTT-videoTestVideo_video9211-shot1_0/img22.jpg,Images/MSR-VTT-videoTestVideo_video9211-shot1_0/img28.jpg,Images/MSR-VTT-videoTestVideo_video9211-shot1_0/img32.jpg,Images/MSR-VTT-videoTestVideo_video9211-shot1_0/img38.jpg,28,2,0,2022-06-14_19h09.19.036,annotation,2021.2.3,Win32,59.99880002,,
,,,,,,,,,,,,,,,,,-0.27962963,0.126851852,1,0,0,image_1,0,50,50,30,1,1993,A man riding on the back of a horse.,M,0,7,MSR-VTT-videoTestVideo_video9649-shot1_2,Images/MSR-VTT-videoTestVideo_video9649-shot1_2/img89.jpg,Images/MSR-VTT-videoTestVideo_video9649-shot1_2/img109.jpg,Images/MSR-VTT-videoTestVideo_video9649-shot1_2/img117.jpg,Images/MSR-VTT-videoTestVideo_video9649-shot1_2/img128.jpg,Images/MSR-VTT-videoTestVideo_video9649-shot1_2/img133.jpg,Images/MSR-VTT-videoTestVideo_video9649-shot1_2/img145.jpg,Images/MSR-VTT-videoTestVideo_video9649-shot1_2/img155.jpg,Images/MSR-VTT-videoTestVideo_video9649-shot1_2/img169.jpg,Images/MSR-VTT-videoTestVideo_video9649-shot1_2/img174.jpg,Images/MSR-VTT-videoTestVideo_video9649-shot1_2/img181.jpg,721,2,0,2022-06-14_19h09.19.036,annotation,2021.2.3,Win32,59.99880002,,
,,,,,,,,,,,,,,,,,0.478703704,-0.176851852,1,0,0,image_9,0,51,51,26,1,1311,A person standing in a room with a bunch of clothes on.,M,0,1,video-storytelling-videochristmas_5RR_sRzKODA-shot23_17,Images/video-storytelling-videochristmas_5RR_sRzKODA-shot23_17/img682.jpg,Images/video-storytelling-videochristmas_5RR_sRzKODA-shot23_17/img684.jpg,Images/video-storytelling-videochristmas_5RR_sRzKODA-shot23_17/img693.jpg,Images/video-storytelling-videochristmas_5RR_sRzKODA-shot23_17/img697.jpg,Images/video-storytelling-videochristmas_5RR_sRzKODA-shot23_17/img701.jpg,Images/video-storytelling-videochristmas_5RR_sRzKODA-shot23_17/img702.jpg,Images/video-storytelling-videochristmas_5RR_sRzKODA-shot23_17/img703.jpg,Images/video-storytelling-videochristmas_5RR_sRzKODA-shot23_17/img705.jpg,Images/video-storytelling-videochristmas_5RR_sRzKODA-shot23_17/img707.jpg,Images/video-storytelling-videochristmas_5RR_sRzKODA-shot23_17/img708.jpg,1062,2,0,2022-06-14_19h09.19.036,annotation,2021.2.3,Win32,59.99880002,,
,,,,,,,,,,,,,,,,,0.485185185,-0.166666667,1,0,0,image_9,0,52,52,60,1,2,Green type writer with a red tape. ,H,,9,open-images-531_0dd4eb59d465a8be,Checks/check3/open-images-503_1ccd6fa641154ebbimg7.jpg,Checks/check3/open-images-1852_00faf52058ad28b8img4.jpg,Checks/check3/open-images-386_1b2e28d6d994603eimg1.jpg,Checks/check3/open-images-471_1121e9f97c200ac0img8.jpg,Checks/check3/open-images-1886_3db71eaddb618934img8.jpg,Checks/check3/open-images-1696_20a4ebf0c0f76b05img6.jpg,Checks/check3/open-images-2447_128483a48e1552f4img6.jpg,Checks/check3/open-images-2994_9965cbf8aa20bda0img2.jpg,Checks/check3/open-images-1068_03d63613107970b3img6.jpg,Checks/check3/open-images-531_0dd4eb59d465a8beimg9.jpg,,,1,2022-06-14_19h09.19.036,annotation,2021.2.3,Win32,59.99880002,,
,,,,,,,,,,,,,,,,,0.253703704,0.119444444,1,0,0,image_3,0,53,53,17,1,36,Girl has her mouth open but no teeth showing and index finger up and thumb,H,0,3,video-storytelling-videocamping_dBXYM3dQTSo-shot75_2,Images/video-storytelling-videocamping_dBXYM3dQTSo-shot75_2/img352.jpg,Images/video-storytelling-videocamping_dBXYM3dQTSo-shot75_2/img380.jpg,Images/video-storytelling-videocamping_dBXYM3dQTSo-shot75_2/img388.jpg,Images/video-storytelling-videocamping_dBXYM3dQTSo-shot75_2/img404.jpg,Images/video-storytelling-videocamping_dBXYM3dQTSo-shot75_2/img410.jpg,Images/video-storytelling-videocamping_dBXYM3dQTSo-shot75_2/img427.jpg,Images/video-storytelling-videocamping_dBXYM3dQTSo-shot75_2/img441.jpg,Images/video-storytelling-videocamping_dBXYM3dQTSo-shot75_2/img481.jpg,Images/video-storytelling-videocamping_dBXYM3dQTSo-shot75_2/img503.jpg,Images/video-storytelling-videocamping_dBXYM3dQTSo-shot75_2/img531.jpg,369,2,0,2022-06-14_19h09.19.036,annotation,2021.2.3,Win32,59.99880002,,
,,,,,,,,,,,,,,,,,-0.232407407,-0.172222222,1,0,0,image_6,0,54,54,19,1,155,"The ""x"" on the left side is clearly visible with just a tiny bit cut off, and just below the center line of the image.",H,0,2,MSR-VTT-videoTestVideo_video7128-shot1_1,Images/MSR-VTT-videoTestVideo_video7128-shot1_1/img155.jpg,Images/MSR-VTT-videoTestVideo_video7128-shot1_1/img159.jpg,Images/MSR-VTT-videoTestVideo_video7128-shot1_1/img162.jpg,Images/MSR-VTT-videoTestVideo_video7128-shot1_1/img164.jpg,Images/MSR-VTT-videoTestVideo_video7128-shot1_1/img169.jpg,Images/MSR-VTT-videoTestVideo_video7128-shot1_1/img171.jpg,Images/MSR-VTT-videoTestVideo_video7128-shot1_1/img196.jpg,Images/MSR-VTT-videoTestVideo_video7128-shot1_1/img203.jpg,Images/MSR-VTT-videoTestVideo_video7128-shot1_1/img204.jpg,Images/MSR-VTT-videoTestVideo_video7128-shot1_1/img210.jpg,1792,2,0,2022-06-14_19h09.19.036,annotation,2021.2.3,Win32,59.99880002,,
,,,,,,,,,,,,,,,,,0.292592593,0.109259259,1,0,0,image_3,0,55,55,0,1,1558,A pair of wire hanging on top of a tree.,M,0,8,video-storytelling-videocamping_EytINruY3-U-shot31_1,Images/video-storytelling-videocamping_EytINruY3-U-shot31_1/img204.jpg,Images/video-storytelling-videocamping_EytINruY3-U-shot31_1/img205.jpg,Images/video-storytelling-videocamping_EytINruY3-U-shot31_1/img250.jpg,Images/video-storytelling-videocamping_EytINruY3-U-shot31_1/img268.jpg,Images/video-storytelling-videocamping_EytINruY3-U-shot31_1/img330.jpg,Images/video-storytelling-videocamping_EytINruY3-U-shot31_1/img411.jpg,Images/video-storytelling-videocamping_EytINruY3-U-shot31_1/img461.jpg,Images/video-storytelling-videocamping_EytINruY3-U-shot31_1/img492.jpg,Images/video-storytelling-videocamping_EytINruY3-U-shot31_1/img514.jpg,Images/video-storytelling-videocamping_EytINruY3-U-shot31_1/img535.jpg,631,2,0,2022-06-14_19h09.19.036,annotation,2021.2.3,Win32,59.99880002,,
,,,,,,,,,,,,,,,,,0.55,0.110185185,1,0,0,image_4,0,56,56,43,1,900,The woman's hair on the right is covering her left eye.  There is a strand of hair that is just below the right eye,H,0,4,MSR-VTT-videoTestVideo_video8952-shot1_1,Images/MSR-VTT-videoTestVideo_video8952-shot1_1/img104.jpg,Images/MSR-VTT-videoTestVideo_video8952-shot1_1/img107.jpg,Images/MSR-VTT-videoTestVideo_video8952-shot1_1/img112.jpg,Images/MSR-VTT-videoTestVideo_video8952-shot1_1/img115.jpg,Images/MSR-VTT-videoTestVideo_video8952-shot1_1/img117.jpg,Images/MSR-VTT-videoTestVideo_video8952-shot1_1/img119.jpg,Images/MSR-VTT-videoTestVideo_video8952-shot1_1/img122.jpg,Images/MSR-VTT-videoTestVideo_video8952-shot1_1/img127.jpg,Images/MSR-VTT-videoTestVideo_video8952-shot1_1/img129.jpg,Images/MSR-VTT-videoTestVideo_video8952-shot1_1/img130.jpg,1198,2,0,2022-06-14_19h09.19.036,annotation,2021.2.3,Win32,59.99880002,,
,,,,,,,,,,,,,,,,,0.480555556,-0.162037037,1,0,0,image_9,0,57,57,9,1,1990,A man holding a baseball bat in a grassy field.,M,0,3,MSR-VTT-videoTestVideo_video9876-shot1_0,Images/MSR-VTT-videoTestVideo_video9876-shot1_0/img0.jpg,Images/MSR-VTT-videoTestVideo_video9876-shot1_0/img2.jpg,Images/MSR-VTT-videoTestVideo_video9876-shot1_0/img4.jpg,Images/MSR-VTT-videoTestVideo_video9876-shot1_0/img6.jpg,Images/MSR-VTT-videoTestVideo_video9876-shot1_0/img7.jpg,Images/MSR-VTT-videoTestVideo_video9876-shot1_0/img9.jpg,Images/MSR-VTT-videoTestVideo_video9876-shot1_0/img13.jpg,Images/MSR-VTT-videoTestVideo_video9876-shot1_0/img17.jpg,Images/MSR-VTT-videoTestVideo_video9876-shot1_0/img19.jpg,Images/MSR-VTT-videoTestVideo_video9876-shot1_0/img21.jpg,1920,2,0,2022-06-14_19h09.19.036,annotation,2021.2.3,Win32,59.99880002,,
,,,,,,,,,,,,,,,,,0.499074074,-0.192592593,1,0,0,image_9,0,58,58,1,1,2016,A bowl filled with some kind of meat on a plate.,M,0,4,MSR-VTT-videoTestVideo_video8776-shot1_1,Images/MSR-VTT-videoTestVideo_video8776-shot1_1/img167.jpg,Images/MSR-VTT-videoTestVideo_video8776-shot1_1/img186.jpg,Images/MSR-VTT-videoTestVideo_video8776-shot1_1/img191.jpg,Images/MSR-VTT-videoTestVideo_video8776-shot1_1/img194.jpg,Images/MSR-VTT-videoTestVideo_video8776-shot1_1/img218.jpg,Images/MSR-VTT-videoTestVideo_video8776-shot1_1/img250.jpg,Images/MSR-VTT-videoTestVideo_video8776-shot1_1/img270.jpg,Images/MSR-VTT-videoTestVideo_video8776-shot1_1/img289.jpg,Images/MSR-VTT-videoTestVideo_video8776-shot1_1/img316.jpg,Images/MSR-VTT-videoTestVideo_video8776-shot1_1/img328.jpg,803,2,0,2022-06-14_19h09.19.036,annotation,2021.2.3,Win32,59.99880002,,
,,,,,,,,,,,,,,,,,0.021296296,0.171296296,1,0,0,image_2,0,59,59,58,1,0,Pair of black gloves,H,,2,open-images-510_3a241cb30d6e5319,Checks/check1/open-images-225_1442c0d0ef23d58bimg3.jpg,Checks/check1/open-images-2759_3a42708fe77398b7img8.jpg,Checks/check1/open-images-510_3a241cb30d6e5319img2.jpg,Checks/check1/open-images-2209_02c98146fb93ff17img1.jpg,Checks/check1/open-images-1553_0f128317e56a9d2fimg9.jpg,Checks/check1/open-images-2666_044d7c6d11e6b493img8.jpg,Checks/check1/open-images-2880_159294646083f545img4.jpg,Checks/check1/open-images-609_2dc0baa993a2bd25img5.jpg,Checks/check1/open-images-1854_2b15616b4f1080e7img2.jpg,Checks/check1/open-images-1435_1b0ce31951048765img8.jpg,,,1,2022-06-14_19h09.19.036,annotation,2021.2.3,Win32,59.99880002,,
,,,,,,,,,,,,,,,,,0,0.125925926,1,0,0,image_2,0,60,60,7,1,169,The entire bar is inside the frame. The tips of the right thumb and forefinger are touching the bar.,H,0,5,MSR-VTT-videoTestVideo_video9556-shot3_3,Images/MSR-VTT-videoTestVideo_video9556-shot3_3/img174.jpg,Images/MSR-VTT-videoTestVideo_video9556-shot3_3/img176.jpg,Images/MSR-VTT-videoTestVideo_video9556-shot3_3/img177.jpg,Images/MSR-VTT-videoTestVideo_video9556-shot3_3/img179.jpg,Images/MSR-VTT-videoTestVideo_video9556-shot3_3/img183.jpg,Images/MSR-VTT-videoTestVideo_video9556-shot3_3/img185.jpg,Images/MSR-VTT-videoTestVideo_video9556-shot3_3/img187.jpg,Images/MSR-VTT-videoTestVideo_video9556-shot3_3/img188.jpg,Images/MSR-VTT-videoTestVideo_video9556-shot3_3/img190.jpg,Images/MSR-VTT-videoTestVideo_video9556-shot3_3/img191.jpg,625,2,0,2022-06-14_19h09.19.036,annotation,2021.2.3,Win32,59.99880002,,
,,,,,,,,,,,,,,,,,-0.22037037,-0.12962963,1,0,0,image_6,0,61,61,56,1,1714,A dog with a long hair standing in the grass.,M,1,8,MSR-VTT-videoTestVideo_video9158-shot1_0,Images/MSR-VTT-videoTestVideo_video9158-shot1_0/img0.jpg,Images/MSR-VTT-videoTestVideo_video9158-shot1_0/img2.jpg,Images/MSR-VTT-videoTestVideo_video9158-shot1_0/img5.jpg,Images/MSR-VTT-videoTestVideo_video9158-shot1_0/img8.jpg,Images/MSR-VTT-videoTestVideo_video9158-shot1_0/img17.jpg,Images/MSR-VTT-videoTestVideo_video9158-shot1_0/img22.jpg,Images/MSR-VTT-videoTestVideo_video9158-shot1_0/img29.jpg,Images/MSR-VTT-videoTestVideo_video9158-shot1_0/img33.jpg,Images/MSR-VTT-videoTestVideo_video9158-shot1_0/img40.jpg,Images/MSR-VTT-videoTestVideo_video9158-shot1_0/img49.jpg,464,2,0,2022-06-14_19h09.19.036,annotation,2021.2.3,Win32,59.99880002,,
,,,,,,,,,,,,,,,,,0.281481481,-0.162037037,1,0,0,image_8,0,62,62,24,1,1441,A bicycle that is attached to a wheelbarrow.,M,0,6,MSR-VTT-videoTestVideo_video8026-shot1_4,Images/MSR-VTT-videoTestVideo_video8026-shot1_4/img240.jpg,Images/MSR-VTT-videoTestVideo_video8026-shot1_4/img250.jpg,Images/MSR-VTT-videoTestVideo_video8026-shot1_4/img266.jpg,Images/MSR-VTT-videoTestVideo_video8026-shot1_4/img272.jpg,Images/MSR-VTT-videoTestVideo_video8026-shot1_4/img286.jpg,Images/MSR-VTT-videoTestVideo_video8026-shot1_4/img289.jpg,Images/MSR-VTT-videoTestVideo_video8026-shot1_4/img293.jpg,Images/MSR-VTT-videoTestVideo_video8026-shot1_4/img298.jpg,Images/MSR-VTT-videoTestVideo_video8026-shot1_4/img301.jpg,Images/MSR-VTT-videoTestVideo_video8026-shot1_4/img306.jpg,417,2,0,2022-06-14_19h09.19.036,annotation,2021.2.3,Win32,59.99880002,,
,,,,,,,,,,,,,,,,,,,,,,,,,,,,,,,,,,,,,,,,,,,,,,,2022-06-14_19h09.19.036,annotation,2021.2.3,Win32,59.99880002,space,41.4516
