mturk,key_resp_2.keys,key_resp_2.rt,key_resp_3.keys,key_resp_3.rt,mouse_2.x,mouse_2.y,mouse_2.leftButton,mouse_2.midButton,mouse_2.rightButton,mouse_2.clicked_name,key_resp_5.keys,key_resp_5.rt,key_resp.keys,key_resp.rt,key_resp_6.keys,key_resp_6.rt,mouse.x,mouse.y,mouse.leftButton,mouse.midButton,mouse.rightButton,mouse.clicked_name,trials.thisRepN,trials.thisTrialN,trials.thisN,trials.thisIndex,trials.ran,N,caption,class_caption,model_guessed,target_idx,image_set,img1,img2,img3,img4,img5,img6,img7,img8,img9,img10,Q_id,block,is_check,date,expName,psychopyVersion,OS,frameRate,key_resp_7.keys,key_resp_7.rt
8319454,space,5.201,space,3.796,0.270833333,0.104166667,1,0,0,ex4,space,4.669,space,7.507,space,1.042,0.49661705,0.173883627,1,0,0,image_4,0,0,0,13,1,592,The bridesmaid is near the back. The female photographer standing at the back left is to the left of the tripod and has head completely turned to the back.,H,0,4,video-storytelling-videowedding_Bp8t824h5NE-shot45_0,Images/video-storytelling-videowedding_Bp8t824h5NE-shot45_0/img0.jpg,Images/video-storytelling-videowedding_Bp8t824h5NE-shot45_0/img6.jpg,Images/video-storytelling-videowedding_Bp8t824h5NE-shot45_0/img23.jpg,Images/video-storytelling-videowedding_Bp8t824h5NE-shot45_0/img46.jpg,Images/video-storytelling-videowedding_Bp8t824h5NE-shot45_0/img55.jpg,Images/video-storytelling-videowedding_Bp8t824h5NE-shot45_0/img91.jpg,Images/video-storytelling-videowedding_Bp8t824h5NE-shot45_0/img137.jpg,Images/video-storytelling-videowedding_Bp8t824h5NE-shot45_0/img151.jpg,Images/video-storytelling-videowedding_Bp8t824h5NE-shot45_0/img181.jpg,Images/video-storytelling-videowedding_Bp8t824h5NE-shot45_0/img236.jpg,915,23,0,2022-06-15_16h41.05.991,annotation,2021.2.3,Win32,60.0240096,,
,,,,,,,,,,,,,,,,,-0.035182679,-0.144113667,1,0,0,image_7,0,1,1,40,1,1766,A table with a bunch of video games on it.,M,0,5,MSR-VTT-videoTestVideo_video8896-shot1_1,Images/MSR-VTT-videoTestVideo_video8896-shot1_1/img96.jpg,Images/MSR-VTT-videoTestVideo_video8896-shot1_1/img109.jpg,Images/MSR-VTT-videoTestVideo_video8896-shot1_1/img129.jpg,Images/MSR-VTT-videoTestVideo_video8896-shot1_1/img136.jpg,Images/MSR-VTT-videoTestVideo_video8896-shot1_1/img146.jpg,Images/MSR-VTT-videoTestVideo_video8896-shot1_1/img198.jpg,Images/MSR-VTT-videoTestVideo_video8896-shot1_1/img231.jpg,Images/MSR-VTT-videoTestVideo_video8896-shot1_1/img272.jpg,Images/MSR-VTT-videoTestVideo_video8896-shot1_1/img314.jpg,Images/MSR-VTT-videoTestVideo_video8896-shot1_1/img367.jpg,1659,23,0,2022-06-15_16h41.05.991,annotation,2021.2.3,Win32,60.0240096,,
,,,,,,,,,,,,,,,,,-0.473612991,-0.180649526,1,0,0,image_5,0,2,2,7,1,1975,A person dressed up as a dog on a lawn.,M,0,5,video-storytelling-videobirthday__amwPjAcoC8-shot75_0,Images/video-storytelling-videobirthday__amwPjAcoC8-shot75_0/img0.jpg,Images/video-storytelling-videobirthday__amwPjAcoC8-shot75_0/img2.jpg,Images/video-storytelling-videobirthday__amwPjAcoC8-shot75_0/img4.jpg,Images/video-storytelling-videobirthday__amwPjAcoC8-shot75_0/img8.jpg,Images/video-storytelling-videobirthday__amwPjAcoC8-shot75_0/img22.jpg,Images/video-storytelling-videobirthday__amwPjAcoC8-shot75_0/img38.jpg,Images/video-storytelling-videobirthday__amwPjAcoC8-shot75_0/img44.jpg,Images/video-storytelling-videobirthday__amwPjAcoC8-shot75_0/img52.jpg,Images/video-storytelling-videobirthday__amwPjAcoC8-shot75_0/img56.jpg,Images/video-storytelling-videobirthday__amwPjAcoC8-shot75_0/img59.jpg,1865,23,0,2022-06-15_16h41.05.991,annotation,2021.2.3,Win32,60.0240096,,
,,,,,,,,,,,,,,,,,0.035182679,0.134641407,1,0,0,image_2,0,3,3,10,1,223,his mouth is close to the water bottle but not touching it,H,0,2,video-storytelling-videocamping_EytINruY3-U-shot43_1,Images/video-storytelling-videocamping_EytINruY3-U-shot43_1/img109.jpg,Images/video-storytelling-videocamping_EytINruY3-U-shot43_1/img119.jpg,Images/video-storytelling-videocamping_EytINruY3-U-shot43_1/img132.jpg,Images/video-storytelling-videocamping_EytINruY3-U-shot43_1/img169.jpg,Images/video-storytelling-videocamping_EytINruY3-U-shot43_1/img250.jpg,Images/video-storytelling-videocamping_EytINruY3-U-shot43_1/img301.jpg,Images/video-storytelling-videocamping_EytINruY3-U-shot43_1/img309.jpg,Images/video-storytelling-videocamping_EytINruY3-U-shot43_1/img312.jpg,Images/video-storytelling-videocamping_EytINruY3-U-shot43_1/img314.jpg,Images/video-storytelling-videocamping_EytINruY3-U-shot43_1/img326.jpg,79,23,0,2022-06-15_16h41.05.991,annotation,2021.2.3,Win32,60.0240096,,
,,,,,,,,,,,,,,,,,0.535859269,0.123815968,1,0,0,image_4,0,4,4,2,1,325,Only the top of the neck of the bottle can be seen. The bottom edge of the man's chin is just barely visible.,H,0,4,MSR-VTT-videoTestVideo_video7511-shot1_2,Images/MSR-VTT-videoTestVideo_video7511-shot1_2/img56.jpg,Images/MSR-VTT-videoTestVideo_video7511-shot1_2/img57.jpg,Images/MSR-VTT-videoTestVideo_video7511-shot1_2/img60.jpg,Images/MSR-VTT-videoTestVideo_video7511-shot1_2/img62.jpg,Images/MSR-VTT-videoTestVideo_video7511-shot1_2/img63.jpg,Images/MSR-VTT-videoTestVideo_video7511-shot1_2/img64.jpg,Images/MSR-VTT-videoTestVideo_video7511-shot1_2/img66.jpg,Images/MSR-VTT-videoTestVideo_video7511-shot1_2/img67.jpg,Images/MSR-VTT-videoTestVideo_video7511-shot1_2/img72.jpg,Images/MSR-VTT-videoTestVideo_video7511-shot1_2/img73.jpg,1876,23,0,2022-06-15_16h41.05.991,annotation,2021.2.3,Win32,60.0240096,,
,,,,,,,,,,,,,,,,,0.269282815,-0.160351827,1,0,0,image_8,0,5,5,47,1,651,The man looks like he is smiling at the camera with teeth together.  His left hand is off the right side of the image.,H,0,8,MSR-VTT-videoTestVideo_video8195-shot0_1,Images/MSR-VTT-videoTestVideo_video8195-shot0_1/img44.jpg,Images/MSR-VTT-videoTestVideo_video8195-shot0_1/img50.jpg,Images/MSR-VTT-videoTestVideo_video8195-shot0_1/img57.jpg,Images/MSR-VTT-videoTestVideo_video8195-shot0_1/img60.jpg,Images/MSR-VTT-videoTestVideo_video8195-shot0_1/img79.jpg,Images/MSR-VTT-videoTestVideo_video8195-shot0_1/img82.jpg,Images/MSR-VTT-videoTestVideo_video8195-shot0_1/img84.jpg,Images/MSR-VTT-videoTestVideo_video8195-shot0_1/img86.jpg,Images/MSR-VTT-videoTestVideo_video8195-shot0_1/img91.jpg,Images/MSR-VTT-videoTestVideo_video8195-shot0_1/img100.jpg,409,23,0,2022-06-15_16h41.05.991,annotation,2021.2.3,Win32,60.0240096,,
,,,,,,,,,,,,,,,,,-0.255751015,0.184709066,1,0,0,image_1,0,6,6,48,1,716,"The men stand facing close to each other, at the most equal and similar heights.",H,0,1,MSR-VTT-videoTestVideo_video8509-shot1_1,Images/MSR-VTT-videoTestVideo_video8509-shot1_1/img62.jpg,Images/MSR-VTT-videoTestVideo_video8509-shot1_1/img77.jpg,Images/MSR-VTT-videoTestVideo_video8509-shot1_1/img82.jpg,Images/MSR-VTT-videoTestVideo_video8509-shot1_1/img102.jpg,Images/MSR-VTT-videoTestVideo_video8509-shot1_1/img113.jpg,Images/MSR-VTT-videoTestVideo_video8509-shot1_1/img116.jpg,Images/MSR-VTT-videoTestVideo_video8509-shot1_1/img139.jpg,Images/MSR-VTT-videoTestVideo_video8509-shot1_1/img143.jpg,Images/MSR-VTT-videoTestVideo_video8509-shot1_1/img146.jpg,Images/MSR-VTT-videoTestVideo_video8509-shot1_1/img150.jpg,1177,23,0,2022-06-15_16h41.05.991,annotation,2021.2.3,Win32,60.0240096,,
,,,,,,,,,,,,,,,,,-0.461434371,-0.157645467,1,0,0,image_5,0,7,7,59,1,1,The only picture of a hawk.  It is looking to the left.  You see lots of branches and darker blue sky. ,H,,5,open-images-958_686caac9c5b322e7,Checks/check2/open-images-2603_1b5152f01f0093e7img3.jpg,Checks/check2/open-images-1836_069810916ce5d675img8.jpg,Checks/check2/open-images-974_0748fdedc4bf8b7bimg2.jpg,Checks/check2/open-images-617_01fb725fb1aa7b04img6.jpg,Checks/check2/open-images-507_047769e1f977cd97img2.jpg,Checks/check2/open-images-958_686caac9c5b322e7img5.jpg,Checks/check2/open-images-1278_21851d9bf5dc05c9img7.jpg,Checks/check2/open-images-2424_05f04546e01499f2img0.jpg,Checks/check2/open-images-1529_1442b11a10a6aeadimg3.jpg,Checks/check2/open-images-514_2c523ddedc2561d4img1.jpg,,,1,2022-06-15_16h41.05.991,annotation,2021.2.3,Win32,60.0240096,,
,,,,,,,,,,,,,,,,,-0.240866035,0.158998647,1,0,0,image_1,0,8,8,35,1,530,You can barely see the orange object on the far left hand side of the picture.  The man's left hand is slightly behind his body. ,H,0,1,MSR-VTT-videoTestVideo_video9175-shot1_1,Images/MSR-VTT-videoTestVideo_video9175-shot1_1/img60.jpg,Images/MSR-VTT-videoTestVideo_video9175-shot1_1/img62.jpg,Images/MSR-VTT-videoTestVideo_video9175-shot1_1/img70.jpg,Images/MSR-VTT-videoTestVideo_video9175-shot1_1/img76.jpg,Images/MSR-VTT-videoTestVideo_video9175-shot1_1/img79.jpg,Images/MSR-VTT-videoTestVideo_video9175-shot1_1/img85.jpg,Images/MSR-VTT-videoTestVideo_video9175-shot1_1/img90.jpg,Images/MSR-VTT-videoTestVideo_video9175-shot1_1/img96.jpg,Images/MSR-VTT-videoTestVideo_video9175-shot1_1/img106.jpg,Images/MSR-VTT-videoTestVideo_video9175-shot1_1/img111.jpg,563,23,0,2022-06-15_16h41.05.991,annotation,2021.2.3,Win32,60.0240096,,
,,,,,,,,,,,,,,,,,0.288227334,0.130581867,1,0,0,image_3,0,9,9,54,1,433,Only the top of the girl's face in the foreground be seen as she looks left.,H,0,1,video-storytelling-videowedding_de8dLXvgV-I-shot28_0,Images/video-storytelling-videowedding_de8dLXvgV-I-shot28_0/img0.jpg,Images/video-storytelling-videowedding_de8dLXvgV-I-shot28_0/img60.jpg,Images/video-storytelling-videowedding_de8dLXvgV-I-shot28_0/img68.jpg,Images/video-storytelling-videowedding_de8dLXvgV-I-shot28_0/img81.jpg,Images/video-storytelling-videowedding_de8dLXvgV-I-shot28_0/img87.jpg,Images/video-storytelling-videowedding_de8dLXvgV-I-shot28_0/img114.jpg,Images/video-storytelling-videowedding_de8dLXvgV-I-shot28_0/img121.jpg,Images/video-storytelling-videowedding_de8dLXvgV-I-shot28_0/img179.jpg,Images/video-storytelling-videowedding_de8dLXvgV-I-shot28_0/img221.jpg,Images/video-storytelling-videowedding_de8dLXvgV-I-shot28_0/img248.jpg,1779,23,0,2022-06-15_16h41.05.991,annotation,2021.2.3,Win32,60.0240096,,
,,,,,,,,,,,,,,,,,-0.49661705,-0.154939107,1,0,0,image_5,0,10,10,50,1,976,Little girl is looking down at dart in her hand and the dart is slightly in the toy gun.,H,0,5,MSR-VTT-videoTestVideo_video8541-shot2_0,Images/MSR-VTT-videoTestVideo_video8541-shot2_0/img0.jpg,Images/MSR-VTT-videoTestVideo_video8541-shot2_0/img4.jpg,Images/MSR-VTT-videoTestVideo_video8541-shot2_0/img13.jpg,Images/MSR-VTT-videoTestVideo_video8541-shot2_0/img23.jpg,Images/MSR-VTT-videoTestVideo_video8541-shot2_0/img40.jpg,Images/MSR-VTT-videoTestVideo_video8541-shot2_0/img62.jpg,Images/MSR-VTT-videoTestVideo_video8541-shot2_0/img95.jpg,Images/MSR-VTT-videoTestVideo_video8541-shot2_0/img98.jpg,Images/MSR-VTT-videoTestVideo_video8541-shot2_0/img118.jpg,Images/MSR-VTT-videoTestVideo_video8541-shot2_0/img122.jpg,1282,23,0,2022-06-15_16h41.05.991,annotation,2021.2.3,Win32,60.0240096,,
,,,,,,,,,,,,,,,,,0.269282815,-0.194181326,1,0,0,image_8,0,11,11,25,1,660,You can see both of the boy in orange's hands for the first time. ,H,0,1,video-storytelling-videobirthday__amwPjAcoC8-shot52_2,Images/video-storytelling-videobirthday__amwPjAcoC8-shot52_2/img88.jpg,Images/video-storytelling-videobirthday__amwPjAcoC8-shot52_2/img90.jpg,Images/video-storytelling-videobirthday__amwPjAcoC8-shot52_2/img92.jpg,Images/video-storytelling-videobirthday__amwPjAcoC8-shot52_2/img93.jpg,Images/video-storytelling-videobirthday__amwPjAcoC8-shot52_2/img94.jpg,Images/video-storytelling-videobirthday__amwPjAcoC8-shot52_2/img95.jpg,Images/video-storytelling-videobirthday__amwPjAcoC8-shot52_2/img97.jpg,Images/video-storytelling-videobirthday__amwPjAcoC8-shot52_2/img100.jpg,Images/video-storytelling-videobirthday__amwPjAcoC8-shot52_2/img105.jpg,Images/video-storytelling-videobirthday__amwPjAcoC8-shot52_2/img107.jpg,925,23,0,2022-06-15_16h41.05.991,annotation,2021.2.3,Win32,60.0240096,,
,,,,,,,,,,,,,,,,,-0.250338295,-0.163058187,1,0,0,image_6,0,12,12,15,1,856,"there is a text on the bottom left of the image, with foams clearly visible boiling on the side of the bread with the spatula on the edge of the bread",H,0,6,YouCook-video0027-shot5_0,Images/YouCook-video0027-shot5_0/img2.jpg,Images/YouCook-video0027-shot5_0/img8.jpg,Images/YouCook-video0027-shot5_0/img19.jpg,Images/YouCook-video0027-shot5_0/img23.jpg,Images/YouCook-video0027-shot5_0/img46.jpg,Images/YouCook-video0027-shot5_0/img57.jpg,Images/YouCook-video0027-shot5_0/img107.jpg,Images/YouCook-video0027-shot5_0/img115.jpg,Images/YouCook-video0027-shot5_0/img127.jpg,Images/YouCook-video0027-shot5_0/img130.jpg,1520,23,0,2022-06-15_16h41.05.991,annotation,2021.2.3,Win32,60.0240096,,
,,,,,,,,,,,,,,,,,-0.01488498,0.141407307,1,0,0,image_2,0,13,13,61,1,3,A grey elephant with golden leaves on it. ,H,,2,open-images-1745_0ed62fe71809b2f5,Checks/check4/open-images-2609_3f72daeb23764ecfimg6.jpg,Checks/check4/open-images-1928_60679e2899870e08img1.jpg,Checks/check4/open-images-1745_0ed62fe71809b2f5img2.jpg,Checks/check4/open-images-1811_9ae6351c7f7565edimg0.jpg,Checks/check4/open-images-1721_6f04da11945ea492img3.jpg,Checks/check4/open-images-1907_5f9be3e4ea5e22c7img2.jpg,Checks/check4/open-images-580_0ddffb9c25141999img1.jpg,Checks/check4/open-images-2924_0645dcbcf998fed9img3.jpg,Checks/check4/open-images-869_856ecbcb5faf76e3img8.jpg,Checks/check4/open-images-250_02039517e63a91fbimg1.jpg,,,1,2022-06-15_16h41.05.991,annotation,2021.2.3,Win32,60.0240096,,
,,,,,,,,,,,,,,,,,-0.225981055,0.125169147,1,0,0,image_1,0,14,14,9,1,1432,A picture of a man with a Coke in his mouth.,M,0,9,MSR-VTT-videoTestVideo_video7541-shot1_8,Images/MSR-VTT-videoTestVideo_video7541-shot1_8/img550.jpg,Images/MSR-VTT-videoTestVideo_video7541-shot1_8/img559.jpg,Images/MSR-VTT-videoTestVideo_video7541-shot1_8/img563.jpg,Images/MSR-VTT-videoTestVideo_video7541-shot1_8/img565.jpg,Images/MSR-VTT-videoTestVideo_video7541-shot1_8/img570.jpg,Images/MSR-VTT-videoTestVideo_video7541-shot1_8/img574.jpg,Images/MSR-VTT-videoTestVideo_video7541-shot1_8/img578.jpg,Images/MSR-VTT-videoTestVideo_video7541-shot1_8/img584.jpg,Images/MSR-VTT-videoTestVideo_video7541-shot1_8/img591.jpg,Images/MSR-VTT-videoTestVideo_video7541-shot1_8/img596.jpg,1068,23,0,2022-06-15_16h41.05.991,annotation,2021.2.3,Win32,60.0240096,,
,,,,,,,,,,,,,,,,,0.566982409,-0.184709066,1,0,0,image_9,0,15,15,60,1,2,Green type writer with a red tape. ,H,,9,open-images-531_0dd4eb59d465a8be,Checks/check3/open-images-503_1ccd6fa641154ebbimg7.jpg,Checks/check3/open-images-1852_00faf52058ad28b8img4.jpg,Checks/check3/open-images-386_1b2e28d6d994603eimg1.jpg,Checks/check3/open-images-471_1121e9f97c200ac0img8.jpg,Checks/check3/open-images-1886_3db71eaddb618934img8.jpg,Checks/check3/open-images-1696_20a4ebf0c0f76b05img6.jpg,Checks/check3/open-images-2447_128483a48e1552f4img6.jpg,Checks/check3/open-images-2994_9965cbf8aa20bda0img2.jpg,Checks/check3/open-images-1068_03d63613107970b3img6.jpg,Checks/check3/open-images-531_0dd4eb59d465a8beimg9.jpg,,,1,2022-06-15_16h41.05.991,annotation,2021.2.3,Win32,60.0240096,,
,,,,,,,,,,,,,,,,,-0.00405954,0.157645467,1,0,0,image_2,0,16,16,30,1,1067,A person holding a bowl of food on top of a table.,M,0,1,MSR-VTT-videoTestVideo_video8672-shot1_1,Images/MSR-VTT-videoTestVideo_video8672-shot1_1/img45.jpg,Images/MSR-VTT-videoTestVideo_video8672-shot1_1/img47.jpg,Images/MSR-VTT-videoTestVideo_video8672-shot1_1/img49.jpg,Images/MSR-VTT-videoTestVideo_video8672-shot1_1/img50.jpg,Images/MSR-VTT-videoTestVideo_video8672-shot1_1/img61.jpg,Images/MSR-VTT-videoTestVideo_video8672-shot1_1/img67.jpg,Images/MSR-VTT-videoTestVideo_video8672-shot1_1/img93.jpg,Images/MSR-VTT-videoTestVideo_video8672-shot1_1/img96.jpg,Images/MSR-VTT-videoTestVideo_video8672-shot1_1/img130.jpg,Images/MSR-VTT-videoTestVideo_video8672-shot1_1/img137.jpg,1603,23,0,2022-06-15_16h41.05.991,annotation,2021.2.3,Win32,60.0240096,,
,,,,,,,,,,,,,,,,,0.213802436,0.157645467,1,0,0,image_3,0,17,17,29,1,1214,A person is cutting a piece of paper with scissors.,M,0,4,MSR-VTT-videoTestVideo_video9564-shot1_0,Images/MSR-VTT-videoTestVideo_video9564-shot1_0/img0.jpg,Images/MSR-VTT-videoTestVideo_video9564-shot1_0/img7.jpg,Images/MSR-VTT-videoTestVideo_video9564-shot1_0/img9.jpg,Images/MSR-VTT-videoTestVideo_video9564-shot1_0/img14.jpg,Images/MSR-VTT-videoTestVideo_video9564-shot1_0/img36.jpg,Images/MSR-VTT-videoTestVideo_video9564-shot1_0/img59.jpg,Images/MSR-VTT-videoTestVideo_video9564-shot1_0/img78.jpg,Images/MSR-VTT-videoTestVideo_video9564-shot1_0/img83.jpg,Images/MSR-VTT-videoTestVideo_video9564-shot1_0/img85.jpg,Images/MSR-VTT-videoTestVideo_video9564-shot1_0/img112.jpg,43,23,0,2022-06-15_16h41.05.991,annotation,2021.2.3,Win32,60.0240096,,
,,,,,,,,,,,,,,,,,0.224627876,-0.142760487,1,0,0,image_8,0,18,18,33,1,749,A silver bowl with a bit of cheese in it,H,0,7,MSR-VTT-videoTestVideo_video7911-shot1_0,Images/MSR-VTT-videoTestVideo_video7911-shot1_0/img0.jpg,Images/MSR-VTT-videoTestVideo_video7911-shot1_0/img6.jpg,Images/MSR-VTT-videoTestVideo_video7911-shot1_0/img11.jpg,Images/MSR-VTT-videoTestVideo_video7911-shot1_0/img13.jpg,Images/MSR-VTT-videoTestVideo_video7911-shot1_0/img14.jpg,Images/MSR-VTT-videoTestVideo_video7911-shot1_0/img15.jpg,Images/MSR-VTT-videoTestVideo_video7911-shot1_0/img21.jpg,Images/MSR-VTT-videoTestVideo_video7911-shot1_0/img42.jpg,Images/MSR-VTT-videoTestVideo_video7911-shot1_0/img121.jpg,Images/MSR-VTT-videoTestVideo_video7911-shot1_0/img124.jpg,570,23,0,2022-06-15_16h41.05.991,annotation,2021.2.3,Win32,60.0240096,,
,,,,,,,,,,,,,,,,,-0.464140731,-0.150879567,1,0,0,image_5,0,19,19,52,1,528,Women's head is tilted to her left with mouth closed,H,0,5,MSR-VTT-videoTestVideo_video7954-shot1_0,Images/MSR-VTT-videoTestVideo_video7954-shot1_0/img0.jpg,Images/MSR-VTT-videoTestVideo_video7954-shot1_0/img11.jpg,Images/MSR-VTT-videoTestVideo_video7954-shot1_0/img42.jpg,Images/MSR-VTT-videoTestVideo_video7954-shot1_0/img47.jpg,Images/MSR-VTT-videoTestVideo_video7954-shot1_0/img69.jpg,Images/MSR-VTT-videoTestVideo_video7954-shot1_0/img112.jpg,Images/MSR-VTT-videoTestVideo_video7954-shot1_0/img141.jpg,Images/MSR-VTT-videoTestVideo_video7954-shot1_0/img158.jpg,Images/MSR-VTT-videoTestVideo_video7954-shot1_0/img163.jpg,Images/MSR-VTT-videoTestVideo_video7954-shot1_0/img182.jpg,1132,23,0,2022-06-15_16h41.05.991,annotation,2021.2.3,Win32,60.0240096,,
,,,,,,,,,,,,,,,,,-0.525033829,0.145466847,1,0,0,image_0,0,20,20,11,1,2029,A man standing next to a table full of food.,M,1,3,MSR-VTT-videoTestVideo_video7999-shot1_0,Images/MSR-VTT-videoTestVideo_video7999-shot1_0/img0.jpg,Images/MSR-VTT-videoTestVideo_video7999-shot1_0/img5.jpg,Images/MSR-VTT-videoTestVideo_video7999-shot1_0/img8.jpg,Images/MSR-VTT-videoTestVideo_video7999-shot1_0/img14.jpg,Images/MSR-VTT-videoTestVideo_video7999-shot1_0/img21.jpg,Images/MSR-VTT-videoTestVideo_video7999-shot1_0/img25.jpg,Images/MSR-VTT-videoTestVideo_video7999-shot1_0/img30.jpg,Images/MSR-VTT-videoTestVideo_video7999-shot1_0/img33.jpg,Images/MSR-VTT-videoTestVideo_video7999-shot1_0/img36.jpg,Images/MSR-VTT-videoTestVideo_video7999-shot1_0/img43.jpg,718,23,0,2022-06-15_16h41.05.991,annotation,2021.2.3,Win32,60.0240096,,
,,,,,,,,,,,,,,,,,-0.50473613,0.157645467,1,0,0,image_0,0,21,21,12,1,1894,A picture of a dog on a motorbike.,M,1,7,MSR-VTT-videoTestVideo_video9903-shot1_3,Images/MSR-VTT-videoTestVideo_video9903-shot1_3/img94.jpg,Images/MSR-VTT-videoTestVideo_video9903-shot1_3/img99.jpg,Images/MSR-VTT-videoTestVideo_video9903-shot1_3/img103.jpg,Images/MSR-VTT-videoTestVideo_video9903-shot1_3/img106.jpg,Images/MSR-VTT-videoTestVideo_video9903-shot1_3/img109.jpg,Images/MSR-VTT-videoTestVideo_video9903-shot1_3/img116.jpg,Images/MSR-VTT-videoTestVideo_video9903-shot1_3/img118.jpg,Images/MSR-VTT-videoTestVideo_video9903-shot1_3/img139.jpg,Images/MSR-VTT-videoTestVideo_video9903-shot1_3/img141.jpg,Images/MSR-VTT-videoTestVideo_video9903-shot1_3/img144.jpg,1754,23,0,2022-06-15_16h41.05.991,annotation,2021.2.3,Win32,60.0240096,,
,,,,,,,,,,,,,,,,,0.00947226,-0.152232747,1,0,0,image_7,0,22,22,38,1,1832,A couple of boxes of food on a table.,M,0,5,MSR-VTT-videoTestVideo_video9053-shot1_8,Images/MSR-VTT-videoTestVideo_video9053-shot1_8/img370.jpg,Images/MSR-VTT-videoTestVideo_video9053-shot1_8/img371.jpg,Images/MSR-VTT-videoTestVideo_video9053-shot1_8/img376.jpg,Images/MSR-VTT-videoTestVideo_video9053-shot1_8/img379.jpg,Images/MSR-VTT-videoTestVideo_video9053-shot1_8/img381.jpg,Images/MSR-VTT-videoTestVideo_video9053-shot1_8/img383.jpg,Images/MSR-VTT-videoTestVideo_video9053-shot1_8/img386.jpg,Images/MSR-VTT-videoTestVideo_video9053-shot1_8/img388.jpg,Images/MSR-VTT-videoTestVideo_video9053-shot1_8/img391.jpg,Images/MSR-VTT-videoTestVideo_video9053-shot1_8/img394.jpg,1589,23,0,2022-06-15_16h41.05.991,annotation,2021.2.3,Win32,60.0240096,,
,,,,,,,,,,,,,,,,,-0.533152909,0.153585927,1,0,0,image_0,0,23,23,17,1,1510,A group of people that are standing next to each other.,M,0,3,MSR-VTT-videoTestVideo_video7332-shot4_0,Images/MSR-VTT-videoTestVideo_video7332-shot4_0/img0.jpg,Images/MSR-VTT-videoTestVideo_video7332-shot4_0/img1.jpg,Images/MSR-VTT-videoTestVideo_video7332-shot4_0/img13.jpg,Images/MSR-VTT-videoTestVideo_video7332-shot4_0/img16.jpg,Images/MSR-VTT-videoTestVideo_video7332-shot4_0/img20.jpg,Images/MSR-VTT-videoTestVideo_video7332-shot4_0/img23.jpg,Images/MSR-VTT-videoTestVideo_video7332-shot4_0/img28.jpg,Images/MSR-VTT-videoTestVideo_video7332-shot4_0/img34.jpg,Images/MSR-VTT-videoTestVideo_video7332-shot4_0/img38.jpg,Images/MSR-VTT-videoTestVideo_video7332-shot4_0/img42.jpg,9,23,0,2022-06-15_16h41.05.991,annotation,2021.2.3,Win32,60.0240096,,
,,,,,,,,,,,,,,,,,-0.240866035,-0.127875507,1,0,0,image_6,0,24,24,34,1,283,the boy's glasses are visible but not the top of his head,H,0,6,MSR-VTT-videoTestVideo_video9276-shot1_0,Images/MSR-VTT-videoTestVideo_video9276-shot1_0/img1.jpg,Images/MSR-VTT-videoTestVideo_video9276-shot1_0/img3.jpg,Images/MSR-VTT-videoTestVideo_video9276-shot1_0/img8.jpg,Images/MSR-VTT-videoTestVideo_video9276-shot1_0/img10.jpg,Images/MSR-VTT-videoTestVideo_video9276-shot1_0/img13.jpg,Images/MSR-VTT-videoTestVideo_video9276-shot1_0/img15.jpg,Images/MSR-VTT-videoTestVideo_video9276-shot1_0/img17.jpg,Images/MSR-VTT-videoTestVideo_video9276-shot1_0/img20.jpg,Images/MSR-VTT-videoTestVideo_video9276-shot1_0/img21.jpg,Images/MSR-VTT-videoTestVideo_video9276-shot1_0/img22.jpg,1442,23,0,2022-06-15_16h41.05.991,annotation,2021.2.3,Win32,60.0240096,,
,,,,,,,,,,,,,,,,,-0.0135318,0.186062246,1,0,0,image_2,0,25,25,58,1,0,Pair of black gloves,H,,2,open-images-510_3a241cb30d6e5319,Checks/check1/open-images-225_1442c0d0ef23d58bimg3.jpg,Checks/check1/open-images-2759_3a42708fe77398b7img8.jpg,Checks/check1/open-images-510_3a241cb30d6e5319img2.jpg,Checks/check1/open-images-2209_02c98146fb93ff17img1.jpg,Checks/check1/open-images-1553_0f128317e56a9d2fimg9.jpg,Checks/check1/open-images-2666_044d7c6d11e6b493img8.jpg,Checks/check1/open-images-2880_159294646083f545img4.jpg,Checks/check1/open-images-609_2dc0baa993a2bd25img5.jpg,Checks/check1/open-images-1854_2b15616b4f1080e7img2.jpg,Checks/check1/open-images-1435_1b0ce31951048765img8.jpg,,,1,2022-06-15_16h41.05.991,annotation,2021.2.3,Win32,60.0240096,,
,,,,,,,,,,,,,,,,,0.267929635,0.134641407,1,0,0,image_3,0,26,26,43,1,102,The bride and the groom are touching hands and the groom is mostly visible with only the top of his head cut off. ,H,0,3,video-storytelling-videowedding_Bp8t824h5NE-shot62_2,Images/video-storytelling-videowedding_Bp8t824h5NE-shot62_2/img199.jpg,Images/video-storytelling-videowedding_Bp8t824h5NE-shot62_2/img212.jpg,Images/video-storytelling-videowedding_Bp8t824h5NE-shot62_2/img228.jpg,Images/video-storytelling-videowedding_Bp8t824h5NE-shot62_2/img248.jpg,Images/video-storytelling-videowedding_Bp8t824h5NE-shot62_2/img302.jpg,Images/video-storytelling-videowedding_Bp8t824h5NE-shot62_2/img368.jpg,Images/video-storytelling-videowedding_Bp8t824h5NE-shot62_2/img437.jpg,Images/video-storytelling-videowedding_Bp8t824h5NE-shot62_2/img449.jpg,Images/video-storytelling-videowedding_Bp8t824h5NE-shot62_2/img487.jpg,Images/video-storytelling-videowedding_Bp8t824h5NE-shot62_2/img520.jpg,1183,23,0,2022-06-15_16h41.05.991,annotation,2021.2.3,Win32,60.0240096,,
,,,,,,,,,,,,,,,,,-0.468200271,-0.146820027,1,0,0,image_5,0,27,27,37,1,14,The girl's left eye and mouth is visible but half of her left cheek is cut off.,H,0,6,video-storytelling-videocamping_dBXYM3dQTSo-shot74_0,Images/video-storytelling-videocamping_dBXYM3dQTSo-shot74_0/img0.jpg,Images/video-storytelling-videocamping_dBXYM3dQTSo-shot74_0/img3.jpg,Images/video-storytelling-videocamping_dBXYM3dQTSo-shot74_0/img5.jpg,Images/video-storytelling-videocamping_dBXYM3dQTSo-shot74_0/img6.jpg,Images/video-storytelling-videocamping_dBXYM3dQTSo-shot74_0/img7.jpg,Images/video-storytelling-videocamping_dBXYM3dQTSo-shot74_0/img8.jpg,Images/video-storytelling-videocamping_dBXYM3dQTSo-shot74_0/img9.jpg,Images/video-storytelling-videocamping_dBXYM3dQTSo-shot74_0/img10.jpg,Images/video-storytelling-videocamping_dBXYM3dQTSo-shot74_0/img12.jpg,Images/video-storytelling-videocamping_dBXYM3dQTSo-shot74_0/img15.jpg,1616,23,0,2022-06-15_16h41.05.991,annotation,2021.2.3,Win32,60.0240096,,
,,,,,,,,,,,,,,,,,0.251691475,-0.160351827,1,0,0,image_8,0,28,28,6,1,414,"The woman is at left, with a small gap completely separating her and the man in profile.",H,0,7,MSR-VTT-videoTestVideo_video7844-shot4_0,Images/MSR-VTT-videoTestVideo_video7844-shot4_0/img0.jpg,Images/MSR-VTT-videoTestVideo_video7844-shot4_0/img6.jpg,Images/MSR-VTT-videoTestVideo_video7844-shot4_0/img13.jpg,Images/MSR-VTT-videoTestVideo_video7844-shot4_0/img16.jpg,Images/MSR-VTT-videoTestVideo_video7844-shot4_0/img21.jpg,Images/MSR-VTT-videoTestVideo_video7844-shot4_0/img23.jpg,Images/MSR-VTT-videoTestVideo_video7844-shot4_0/img26.jpg,Images/MSR-VTT-videoTestVideo_video7844-shot4_0/img30.jpg,Images/MSR-VTT-videoTestVideo_video7844-shot4_0/img33.jpg,Images/MSR-VTT-videoTestVideo_video7844-shot4_0/img38.jpg,1933,23,0,2022-06-15_16h41.05.991,annotation,2021.2.3,Win32,60.0240096,,
,,,,,,,,,,,,,,,,,-0.239512855,0.175236806,1,0,0,image_1,0,29,29,19,1,445,There is a small white triangle of text that is seen on the red part of the balloon at the far top edge of the image. ,H,0,2,video-storytelling-videobirthday__amwPjAcoC8-shot65_1,Images/video-storytelling-videobirthday__amwPjAcoC8-shot65_1/img20.jpg,Images/video-storytelling-videobirthday__amwPjAcoC8-shot65_1/img23.jpg,Images/video-storytelling-videobirthday__amwPjAcoC8-shot65_1/img25.jpg,Images/video-storytelling-videobirthday__amwPjAcoC8-shot65_1/img27.jpg,Images/video-storytelling-videobirthday__amwPjAcoC8-shot65_1/img29.jpg,Images/video-storytelling-videobirthday__amwPjAcoC8-shot65_1/img31.jpg,Images/video-storytelling-videobirthday__amwPjAcoC8-shot65_1/img34.jpg,Images/video-storytelling-videobirthday__amwPjAcoC8-shot65_1/img36.jpg,Images/video-storytelling-videobirthday__amwPjAcoC8-shot65_1/img38.jpg,Images/video-storytelling-videobirthday__amwPjAcoC8-shot65_1/img42.jpg,798,23,0,2022-06-15_16h41.05.991,annotation,2021.2.3,Win32,60.0240096,,
,,,,,,,,,,,,,,,,,0.470906631,-0.115696888,1,0,0,image_9,0,30,30,27,1,887,The sign with orange text on the far left can't be seen at all anymore.  The very top of the red sign at the top center of the image is cut off but you can clearly see all of the text. ,H,0,7,video-storytelling-videocamping_dBXYM3dQTSo-shot78_2,Images/video-storytelling-videocamping_dBXYM3dQTSo-shot78_2/img87.jpg,Images/video-storytelling-videocamping_dBXYM3dQTSo-shot78_2/img92.jpg,Images/video-storytelling-videocamping_dBXYM3dQTSo-shot78_2/img95.jpg,Images/video-storytelling-videocamping_dBXYM3dQTSo-shot78_2/img99.jpg,Images/video-storytelling-videocamping_dBXYM3dQTSo-shot78_2/img105.jpg,Images/video-storytelling-videocamping_dBXYM3dQTSo-shot78_2/img114.jpg,Images/video-storytelling-videocamping_dBXYM3dQTSo-shot78_2/img117.jpg,Images/video-storytelling-videocamping_dBXYM3dQTSo-shot78_2/img118.jpg,Images/video-storytelling-videocamping_dBXYM3dQTSo-shot78_2/img120.jpg,Images/video-storytelling-videocamping_dBXYM3dQTSo-shot78_2/img122.jpg,651,23,0,2022-06-15_16h41.05.991,annotation,2021.2.3,Win32,60.0240096,,
,,,,,,,,,,,,,,,,,0.031123139,-0.152232747,1,0,0,image_7,0,31,31,56,1,515,"She is looking straight at the camera, smiling. The microphone is to the left of her mouth.",H,0,7,MSR-VTT-videoTestVideo_video8496-shot1_0,Images/MSR-VTT-videoTestVideo_video8496-shot1_0/img0.jpg,Images/MSR-VTT-videoTestVideo_video8496-shot1_0/img4.jpg,Images/MSR-VTT-videoTestVideo_video8496-shot1_0/img6.jpg,Images/MSR-VTT-videoTestVideo_video8496-shot1_0/img7.jpg,Images/MSR-VTT-videoTestVideo_video8496-shot1_0/img9.jpg,Images/MSR-VTT-videoTestVideo_video8496-shot1_0/img11.jpg,Images/MSR-VTT-videoTestVideo_video8496-shot1_0/img18.jpg,Images/MSR-VTT-videoTestVideo_video8496-shot1_0/img27.jpg,Images/MSR-VTT-videoTestVideo_video8496-shot1_0/img69.jpg,Images/MSR-VTT-videoTestVideo_video8496-shot1_0/img75.jpg,1771,23,0,2022-06-15_16h41.05.991,annotation,2021.2.3,Win32,60.0240096,,
,,,,,,,,,,,,,,,,,0.265223275,-0.146820027,1,0,0,image_8,0,32,32,14,1,1626,A photo of a person holding a gun.,M,0,2,MSR-VTT-videoTestVideo_video9837-shot1_0,Images/MSR-VTT-videoTestVideo_video9837-shot1_0/img0.jpg,Images/MSR-VTT-videoTestVideo_video9837-shot1_0/img6.jpg,Images/MSR-VTT-videoTestVideo_video9837-shot1_0/img7.jpg,Images/MSR-VTT-videoTestVideo_video9837-shot1_0/img13.jpg,Images/MSR-VTT-videoTestVideo_video9837-shot1_0/img30.jpg,Images/MSR-VTT-videoTestVideo_video9837-shot1_0/img44.jpg,Images/MSR-VTT-videoTestVideo_video9837-shot1_0/img53.jpg,Images/MSR-VTT-videoTestVideo_video9837-shot1_0/img58.jpg,Images/MSR-VTT-videoTestVideo_video9837-shot1_0/img59.jpg,Images/MSR-VTT-videoTestVideo_video9837-shot1_0/img68.jpg,763,23,0,2022-06-15_16h41.05.991,annotation,2021.2.3,Win32,60.0240096,,
,,,,,,,,,,,,,,,,,0.235453315,-0.152232747,1,0,0,image_8,0,33,33,51,1,1533,A man wearing glasses and a helmet is taking a picture.,M,0,5,video-storytelling-videobirthday__amwPjAcoC8-shot78_0,Images/video-storytelling-videobirthday__amwPjAcoC8-shot78_0/img0.jpg,Images/video-storytelling-videobirthday__amwPjAcoC8-shot78_0/img1.jpg,Images/video-storytelling-videobirthday__amwPjAcoC8-shot78_0/img2.jpg,Images/video-storytelling-videobirthday__amwPjAcoC8-shot78_0/img4.jpg,Images/video-storytelling-videobirthday__amwPjAcoC8-shot78_0/img6.jpg,Images/video-storytelling-videobirthday__amwPjAcoC8-shot78_0/img7.jpg,Images/video-storytelling-videobirthday__amwPjAcoC8-shot78_0/img9.jpg,Images/video-storytelling-videobirthday__amwPjAcoC8-shot78_0/img12.jpg,Images/video-storytelling-videobirthday__amwPjAcoC8-shot78_0/img13.jpg,Images/video-storytelling-videobirthday__amwPjAcoC8-shot78_0/img15.jpg,1211,23,0,2022-06-15_16h41.05.991,annotation,2021.2.3,Win32,60.0240096,,
,,,,,,,,,,,,,,,,,0.01894452,-0.146820027,1,0,0,image_7,0,34,34,32,1,1517,A man in a white shirt with a big smile on his face.,M,1,6,MSR-VTT-videoTestVideo_video8721-shot1_1,Images/MSR-VTT-videoTestVideo_video8721-shot1_1/img185.jpg,Images/MSR-VTT-videoTestVideo_video8721-shot1_1/img227.jpg,Images/MSR-VTT-videoTestVideo_video8721-shot1_1/img234.jpg,Images/MSR-VTT-videoTestVideo_video8721-shot1_1/img250.jpg,Images/MSR-VTT-videoTestVideo_video8721-shot1_1/img255.jpg,Images/MSR-VTT-videoTestVideo_video8721-shot1_1/img300.jpg,Images/MSR-VTT-videoTestVideo_video8721-shot1_1/img307.jpg,Images/MSR-VTT-videoTestVideo_video8721-shot1_1/img345.jpg,Images/MSR-VTT-videoTestVideo_video8721-shot1_1/img360.jpg,Images/MSR-VTT-videoTestVideo_video8721-shot1_1/img380.jpg,314,23,0,2022-06-15_16h41.05.991,annotation,2021.2.3,Win32,60.0240096,,
,,,,,,,,,,,,,,,,,0.52232747,-0.157645467,1,0,0,image_9,0,35,35,39,1,1507,A man walking across a field with a frisbee.,M,0,3,MSR-VTT-videoTestVideo_video9543-shot1_13,Images/MSR-VTT-videoTestVideo_video9543-shot1_13/img544.jpg,Images/MSR-VTT-videoTestVideo_video9543-shot1_13/img547.jpg,Images/MSR-VTT-videoTestVideo_video9543-shot1_13/img550.jpg,Images/MSR-VTT-videoTestVideo_video9543-shot1_13/img552.jpg,Images/MSR-VTT-videoTestVideo_video9543-shot1_13/img556.jpg,Images/MSR-VTT-videoTestVideo_video9543-shot1_13/img561.jpg,Images/MSR-VTT-videoTestVideo_video9543-shot1_13/img565.jpg,Images/MSR-VTT-videoTestVideo_video9543-shot1_13/img571.jpg,Images/MSR-VTT-videoTestVideo_video9543-shot1_13/img573.jpg,Images/MSR-VTT-videoTestVideo_video9543-shot1_13/img576.jpg,375,23,0,2022-06-15_16h41.05.991,annotation,2021.2.3,Win32,60.0240096,,
,,,,,,,,,,,,,,,,,0.464140731,0.141407307,1,0,0,image_4,0,36,36,41,1,1652,A woman holding a frisbee in front of a crowd.,M,0,6,MSR-VTT-videoTestVideo_video8476-shot1_4,Images/MSR-VTT-videoTestVideo_video8476-shot1_4/img162.jpg,Images/MSR-VTT-videoTestVideo_video8476-shot1_4/img166.jpg,Images/MSR-VTT-videoTestVideo_video8476-shot1_4/img167.jpg,Images/MSR-VTT-videoTestVideo_video8476-shot1_4/img168.jpg,Images/MSR-VTT-videoTestVideo_video8476-shot1_4/img170.jpg,Images/MSR-VTT-videoTestVideo_video8476-shot1_4/img172.jpg,Images/MSR-VTT-videoTestVideo_video8476-shot1_4/img174.jpg,Images/MSR-VTT-videoTestVideo_video8476-shot1_4/img175.jpg,Images/MSR-VTT-videoTestVideo_video8476-shot1_4/img178.jpg,Images/MSR-VTT-videoTestVideo_video8476-shot1_4/img180.jpg,1780,23,0,2022-06-15_16h41.05.991,annotation,2021.2.3,Win32,60.0240096,,
,,,,,,,,,,,,,,,,,0.51962111,0.114343708,1,0,0,image_4,0,37,37,31,1,1017,You can see three whole people in the shot and a bit more that half of another person on the far left. ,H,0,4,MSR-VTT-videoTestVideo_video7458-shot2_4,Images/MSR-VTT-videoTestVideo_video7458-shot2_4/img201.jpg,Images/MSR-VTT-videoTestVideo_video7458-shot2_4/img208.jpg,Images/MSR-VTT-videoTestVideo_video7458-shot2_4/img213.jpg,Images/MSR-VTT-videoTestVideo_video7458-shot2_4/img222.jpg,Images/MSR-VTT-videoTestVideo_video7458-shot2_4/img238.jpg,Images/MSR-VTT-videoTestVideo_video7458-shot2_4/img252.jpg,Images/MSR-VTT-videoTestVideo_video7458-shot2_4/img254.jpg,Images/MSR-VTT-videoTestVideo_video7458-shot2_4/img255.jpg,Images/MSR-VTT-videoTestVideo_video7458-shot2_4/img297.jpg,Images/MSR-VTT-videoTestVideo_video7458-shot2_4/img308.jpg,683,23,0,2022-06-15_16h41.05.991,annotation,2021.2.3,Win32,60.0240096,,
,,,,,,,,,,,,,,,,,0.473612991,-0.108930988,1,0,0,image_9,0,38,38,57,1,1647,A blurry image of a person holding a banana.,M,0,2,MSR-VTT-videoTestVideo_video7889-shot1_0,Images/MSR-VTT-videoTestVideo_video7889-shot1_0/img0.jpg,Images/MSR-VTT-videoTestVideo_video7889-shot1_0/img2.jpg,Images/MSR-VTT-videoTestVideo_video7889-shot1_0/img9.jpg,Images/MSR-VTT-videoTestVideo_video7889-shot1_0/img12.jpg,Images/MSR-VTT-videoTestVideo_video7889-shot1_0/img25.jpg,Images/MSR-VTT-videoTestVideo_video7889-shot1_0/img41.jpg,Images/MSR-VTT-videoTestVideo_video7889-shot1_0/img56.jpg,Images/MSR-VTT-videoTestVideo_video7889-shot1_0/img69.jpg,Images/MSR-VTT-videoTestVideo_video7889-shot1_0/img72.jpg,Images/MSR-VTT-videoTestVideo_video7889-shot1_0/img82.jpg,194,23,0,2022-06-15_16h41.05.991,annotation,2021.2.3,Win32,60.0240096,,
,,,,,,,,,,,,,,,,,-0.48443843,0.148173207,1,0,0,image_0,0,39,39,23,1,1286,A couple of men sitting next to each other.,M,0,6,MSR-VTT-videoTestVideo_video9327-shot1_0,Images/MSR-VTT-videoTestVideo_video9327-shot1_0/img0.jpg,Images/MSR-VTT-videoTestVideo_video9327-shot1_0/img3.jpg,Images/MSR-VTT-videoTestVideo_video9327-shot1_0/img26.jpg,Images/MSR-VTT-videoTestVideo_video9327-shot1_0/img31.jpg,Images/MSR-VTT-videoTestVideo_video9327-shot1_0/img39.jpg,Images/MSR-VTT-videoTestVideo_video9327-shot1_0/img43.jpg,Images/MSR-VTT-videoTestVideo_video9327-shot1_0/img46.jpg,Images/MSR-VTT-videoTestVideo_video9327-shot1_0/img48.jpg,Images/MSR-VTT-videoTestVideo_video9327-shot1_0/img53.jpg,Images/MSR-VTT-videoTestVideo_video9327-shot1_0/img61.jpg,1493,23,0,2022-06-15_16h41.05.991,annotation,2021.2.3,Win32,60.0240096,,
,,,,,,,,,,,,,,,,,-0.48714479,-0.165764547,1,0,0,image_5,0,40,40,28,1,161,"A woman is tumbling through the air, her face is facing upwards. Her knees are pulled up close to her chest. Her torso is tilted slightly backwards.",H,0,4,MSR-VTT-videoTestVideo_video9623-shot1_2,Images/MSR-VTT-videoTestVideo_video9623-shot1_2/img149.jpg,Images/MSR-VTT-videoTestVideo_video9623-shot1_2/img151.jpg,Images/MSR-VTT-videoTestVideo_video9623-shot1_2/img154.jpg,Images/MSR-VTT-videoTestVideo_video9623-shot1_2/img158.jpg,Images/MSR-VTT-videoTestVideo_video9623-shot1_2/img165.jpg,Images/MSR-VTT-videoTestVideo_video9623-shot1_2/img166.jpg,Images/MSR-VTT-videoTestVideo_video9623-shot1_2/img168.jpg,Images/MSR-VTT-videoTestVideo_video9623-shot1_2/img173.jpg,Images/MSR-VTT-videoTestVideo_video9623-shot1_2/img174.jpg,Images/MSR-VTT-videoTestVideo_video9623-shot1_2/img175.jpg,1599,23,0,2022-06-15_16h41.05.991,annotation,2021.2.3,Win32,60.0240096,,
,,,,,,,,,,,,,,,,,-0.246278755,0.145466847,1,0,0,image_1,0,41,41,62,1,4,A penguin holding a piece of paper with text on it. ,H,,1,open-images-2521_074d6af730ed17a6,Checks/check5/open-images-509_4d8bd994cb8c6eaeimg0.jpg,Checks/check5/open-images-2521_074d6af730ed17a6img1.jpg,Checks/check5/open-images-1365_a00a5fde334ae45aimg4.jpg,Checks/check5/open-images-1602_44092afdeab39e73img6.jpg,Checks/check5/open-images-1032_059f3cdfb85ee0ceimg3.jpg,Checks/check5/open-images-727_25b77fff36adba66img2.jpg,Checks/check5/open-images-2208_0fb92b9978d98575img2.jpg,Checks/check5/open-images-1305_05769e6abb16fdc8img9.jpg,Checks/check5/open-images-2676_052dbf7b4899430bimg1.jpg,Checks/check5/open-images-2569_1e81d79bb796a2dbimg7.jpg,,,1,2022-06-15_16h41.05.991,annotation,2021.2.3,Win32,60.0240096,,
,,,,,,,,,,,,,,,,,0.242219215,0.135994587,1,0,0,image_3,0,42,42,3,1,357,Three blurry fingers can be seen petting the animal,H,0,3,MSR-VTT-videoTestVideo_video9158-shot1_5,Images/MSR-VTT-videoTestVideo_video9158-shot1_5/img237.jpg,Images/MSR-VTT-videoTestVideo_video9158-shot1_5/img239.jpg,Images/MSR-VTT-videoTestVideo_video9158-shot1_5/img247.jpg,Images/MSR-VTT-videoTestVideo_video9158-shot1_5/img256.jpg,Images/MSR-VTT-videoTestVideo_video9158-shot1_5/img258.jpg,Images/MSR-VTT-videoTestVideo_video9158-shot1_5/img261.jpg,Images/MSR-VTT-videoTestVideo_video9158-shot1_5/img263.jpg,Images/MSR-VTT-videoTestVideo_video9158-shot1_5/img266.jpg,Images/MSR-VTT-videoTestVideo_video9158-shot1_5/img269.jpg,Images/MSR-VTT-videoTestVideo_video9158-shot1_5/img272.jpg,1080,23,0,2022-06-15_16h41.05.991,annotation,2021.2.3,Win32,60.0240096,,
,,,,,,,,,,,,,,,,,-0.462787551,0.156292287,1,0,0,image_0,0,43,43,1,1,1506,A person standing in front of a stage with a pony.,M,1,6,MSR-VTT-videoTestVideo_video7624-shot3_1,Images/MSR-VTT-videoTestVideo_video7624-shot3_1/img98.jpg,Images/MSR-VTT-videoTestVideo_video7624-shot3_1/img105.jpg,Images/MSR-VTT-videoTestVideo_video7624-shot3_1/img114.jpg,Images/MSR-VTT-videoTestVideo_video7624-shot3_1/img124.jpg,Images/MSR-VTT-videoTestVideo_video7624-shot3_1/img128.jpg,Images/MSR-VTT-videoTestVideo_video7624-shot3_1/img131.jpg,Images/MSR-VTT-videoTestVideo_video7624-shot3_1/img136.jpg,Images/MSR-VTT-videoTestVideo_video7624-shot3_1/img142.jpg,Images/MSR-VTT-videoTestVideo_video7624-shot3_1/img150.jpg,Images/MSR-VTT-videoTestVideo_video7624-shot3_1/img166.jpg,1002,23,0,2022-06-15_16h41.05.991,annotation,2021.2.3,Win32,60.0240096,,
,,,,,,,,,,,,,,,,,0.474966171,0.135994587,1,0,0,image_4,0,44,44,45,1,305,"You can clearly see the number on the sign, but it is hard to see the words. Almost right next to the sign.",H,0,5,video-storytelling-videocamping_dBXYM3dQTSo-shot3_0,Images/video-storytelling-videocamping_dBXYM3dQTSo-shot3_0/img0.jpg,Images/video-storytelling-videocamping_dBXYM3dQTSo-shot3_0/img6.jpg,Images/video-storytelling-videocamping_dBXYM3dQTSo-shot3_0/img31.jpg,Images/video-storytelling-videocamping_dBXYM3dQTSo-shot3_0/img37.jpg,Images/video-storytelling-videocamping_dBXYM3dQTSo-shot3_0/img43.jpg,Images/video-storytelling-videocamping_dBXYM3dQTSo-shot3_0/img45.jpg,Images/video-storytelling-videocamping_dBXYM3dQTSo-shot3_0/img48.jpg,Images/video-storytelling-videocamping_dBXYM3dQTSo-shot3_0/img51.jpg,Images/video-storytelling-videocamping_dBXYM3dQTSo-shot3_0/img61.jpg,Images/video-storytelling-videocamping_dBXYM3dQTSo-shot3_0/img77.jpg,1789,23,0,2022-06-15_16h41.05.991,annotation,2021.2.3,Win32,60.0240096,,
,,,,,,,,,,,,,,,,,0.48714479,-0.171177267,1,0,0,image_9,0,45,45,46,1,2057,A bowl full of food on a table.,M,1,5,MSR-VTT-videoTestVideo_video9631-shot1_2,Images/MSR-VTT-videoTestVideo_video9631-shot1_2/img456.jpg,Images/MSR-VTT-videoTestVideo_video9631-shot1_2/img463.jpg,Images/MSR-VTT-videoTestVideo_video9631-shot1_2/img477.jpg,Images/MSR-VTT-videoTestVideo_video9631-shot1_2/img522.jpg,Images/MSR-VTT-videoTestVideo_video9631-shot1_2/img538.jpg,Images/MSR-VTT-videoTestVideo_video9631-shot1_2/img584.jpg,Images/MSR-VTT-videoTestVideo_video9631-shot1_2/img592.jpg,Images/MSR-VTT-videoTestVideo_video9631-shot1_2/img612.jpg,Images/MSR-VTT-videoTestVideo_video9631-shot1_2/img631.jpg,Images/MSR-VTT-videoTestVideo_video9631-shot1_2/img648.jpg,421,23,0,2022-06-15_16h41.05.991,annotation,2021.2.3,Win32,60.0240096,,
,,,,,,,,,,,,,,,,,0.48985115,-0.157645467,1,0,0,image_9,0,46,46,55,1,758,"There is a man and woman dancing, with another couple off to the left. The man's back is facing the camera and there appears to be something white hanging from his back pocket.",H,0,9,MSR-VTT-videoTestVideo_video9219-shot1_3,Images/MSR-VTT-videoTestVideo_video9219-shot1_3/img256.jpg,Images/MSR-VTT-videoTestVideo_video9219-shot1_3/img260.jpg,Images/MSR-VTT-videoTestVideo_video9219-shot1_3/img262.jpg,Images/MSR-VTT-videoTestVideo_video9219-shot1_3/img268.jpg,Images/MSR-VTT-videoTestVideo_video9219-shot1_3/img272.jpg,Images/MSR-VTT-videoTestVideo_video9219-shot1_3/img286.jpg,Images/MSR-VTT-videoTestVideo_video9219-shot1_3/img291.jpg,Images/MSR-VTT-videoTestVideo_video9219-shot1_3/img302.jpg,Images/MSR-VTT-videoTestVideo_video9219-shot1_3/img315.jpg,Images/MSR-VTT-videoTestVideo_video9219-shot1_3/img328.jpg,387,23,0,2022-06-15_16h41.05.991,annotation,2021.2.3,Win32,60.0240096,,
,,,,,,,,,,,,,,,,,0.236806495,-0.145466847,1,0,0,image_8,0,47,47,24,1,524,The boy is between the two girls.  Under his chin is the smaller girl's ear..,H,0,9,video-storytelling-videowedding_46xhFCXBMJs-shot60_0,Images/video-storytelling-videowedding_46xhFCXBMJs-shot60_0/img0.jpg,Images/video-storytelling-videowedding_46xhFCXBMJs-shot60_0/img3.jpg,Images/video-storytelling-videowedding_46xhFCXBMJs-shot60_0/img10.jpg,Images/video-storytelling-videowedding_46xhFCXBMJs-shot60_0/img17.jpg,Images/video-storytelling-videowedding_46xhFCXBMJs-shot60_0/img22.jpg,Images/video-storytelling-videowedding_46xhFCXBMJs-shot60_0/img27.jpg,Images/video-storytelling-videowedding_46xhFCXBMJs-shot60_0/img34.jpg,Images/video-storytelling-videowedding_46xhFCXBMJs-shot60_0/img41.jpg,Images/video-storytelling-videowedding_46xhFCXBMJs-shot60_0/img45.jpg,Images/video-storytelling-videowedding_46xhFCXBMJs-shot60_0/img50.jpg,2047,23,0,2022-06-15_16h41.05.991,annotation,2021.2.3,Win32,60.0240096,,
,,,,,,,,,,,,,,,,,0.266576455,-0.163058187,1,0,0,image_8,0,48,48,49,1,419,There is a large explosion in the back.  All of the people are ducking and you can see the tops of the people's heads in the front. ,H,0,7,MSR-VTT-videoTestVideo_video8547-shot1_1,Images/MSR-VTT-videoTestVideo_video8547-shot1_1/img35.jpg,Images/MSR-VTT-videoTestVideo_video8547-shot1_1/img41.jpg,Images/MSR-VTT-videoTestVideo_video8547-shot1_1/img43.jpg,Images/MSR-VTT-videoTestVideo_video8547-shot1_1/img44.jpg,Images/MSR-VTT-videoTestVideo_video8547-shot1_1/img46.jpg,Images/MSR-VTT-videoTestVideo_video8547-shot1_1/img49.jpg,Images/MSR-VTT-videoTestVideo_video8547-shot1_1/img52.jpg,Images/MSR-VTT-videoTestVideo_video8547-shot1_1/img57.jpg,Images/MSR-VTT-videoTestVideo_video8547-shot1_1/img60.jpg,Images/MSR-VTT-videoTestVideo_video8547-shot1_1/img64.jpg,1195,23,0,2022-06-15_16h41.05.991,annotation,2021.2.3,Win32,60.0240096,,
,,,,,,,,,,,,,,,,,0.426251691,0.150879567,1,0,0,image_4,0,49,49,26,1,629,"You can see a line going down on the left side of the image, it is from the blue squares and it is very close to the left edge but not touching.",H,0,2,MSR-VTT-videoTestVideo_video8465-shot1_0,Images/MSR-VTT-videoTestVideo_video8465-shot1_0/img0.jpg,Images/MSR-VTT-videoTestVideo_video8465-shot1_0/img3.jpg,Images/MSR-VTT-videoTestVideo_video8465-shot1_0/img6.jpg,Images/MSR-VTT-videoTestVideo_video8465-shot1_0/img10.jpg,Images/MSR-VTT-videoTestVideo_video8465-shot1_0/img12.jpg,Images/MSR-VTT-videoTestVideo_video8465-shot1_0/img23.jpg,Images/MSR-VTT-videoTestVideo_video8465-shot1_0/img32.jpg,Images/MSR-VTT-videoTestVideo_video8465-shot1_0/img36.jpg,Images/MSR-VTT-videoTestVideo_video8465-shot1_0/img41.jpg,Images/MSR-VTT-videoTestVideo_video8465-shot1_0/img44.jpg,257,23,0,2022-06-15_16h41.05.991,annotation,2021.2.3,Win32,60.0240096,,
,,,,,,,,,,,,,,,,,0.438430311,0.163058187,1,0,0,image_4,0,50,50,53,1,1963,A person holding a piece of fruit on a table.,M,1,8,YouCook-video0034-shot16_2,Images/YouCook-video0034-shot16_2/img275.jpg,Images/YouCook-video0034-shot16_2/img280.jpg,Images/YouCook-video0034-shot16_2/img291.jpg,Images/YouCook-video0034-shot16_2/img301.jpg,Images/YouCook-video0034-shot16_2/img338.jpg,Images/YouCook-video0034-shot16_2/img344.jpg,Images/YouCook-video0034-shot16_2/img347.jpg,Images/YouCook-video0034-shot16_2/img350.jpg,Images/YouCook-video0034-shot16_2/img354.jpg,Images/YouCook-video0034-shot16_2/img367.jpg,458,23,0,2022-06-15_16h41.05.991,annotation,2021.2.3,Win32,60.0240096,,
,,,,,,,,,,,,,,,,,0.51150203,0.126522327,1,0,0,image_4,0,51,51,44,1,219,You can just see half of the headlight of the motorcycle on the far left while seeing all of the large buildings in the back. ,H,0,4,MSR-VTT-videoTestVideo_video9773-shot1_0,Images/MSR-VTT-videoTestVideo_video9773-shot1_0/img2.jpg,Images/MSR-VTT-videoTestVideo_video9773-shot1_0/img10.jpg,Images/MSR-VTT-videoTestVideo_video9773-shot1_0/img15.jpg,Images/MSR-VTT-videoTestVideo_video9773-shot1_0/img18.jpg,Images/MSR-VTT-videoTestVideo_video9773-shot1_0/img23.jpg,Images/MSR-VTT-videoTestVideo_video9773-shot1_0/img26.jpg,Images/MSR-VTT-videoTestVideo_video9773-shot1_0/img28.jpg,Images/MSR-VTT-videoTestVideo_video9773-shot1_0/img29.jpg,Images/MSR-VTT-videoTestVideo_video9773-shot1_0/img31.jpg,Images/MSR-VTT-videoTestVideo_video9773-shot1_0/img33.jpg,1178,23,0,2022-06-15_16h41.05.991,annotation,2021.2.3,Win32,60.0240096,,
,,,,,,,,,,,,,,,,,0.056833559,0.199594046,1,0,0,image_2,0,52,52,18,1,668,The only part of the red shirt that is visible is the edge of the sleeve.,H,0,2,MSR-VTT-videoTestVideo_video9876-shot1_0,Images/MSR-VTT-videoTestVideo_video9876-shot1_0/img0.jpg,Images/MSR-VTT-videoTestVideo_video9876-shot1_0/img2.jpg,Images/MSR-VTT-videoTestVideo_video9876-shot1_0/img4.jpg,Images/MSR-VTT-videoTestVideo_video9876-shot1_0/img6.jpg,Images/MSR-VTT-videoTestVideo_video9876-shot1_0/img7.jpg,Images/MSR-VTT-videoTestVideo_video9876-shot1_0/img9.jpg,Images/MSR-VTT-videoTestVideo_video9876-shot1_0/img13.jpg,Images/MSR-VTT-videoTestVideo_video9876-shot1_0/img17.jpg,Images/MSR-VTT-videoTestVideo_video9876-shot1_0/img19.jpg,Images/MSR-VTT-videoTestVideo_video9876-shot1_0/img21.jpg,266,23,0,2022-06-15_16h41.05.991,annotation,2021.2.3,Win32,60.0240096,,
,,,,,,,,,,,,,,,,,0.47631935,-0.173883627,1,0,0,image_9,0,53,53,16,1,1032,this pic is extremely blurry and there's a big thick grey object in the center of the pic,H,0,9,MSR-VTT-videoTestVideo_video8595-shot1_0,Images/MSR-VTT-videoTestVideo_video8595-shot1_0/img0.jpg,Images/MSR-VTT-videoTestVideo_video8595-shot1_0/img1.jpg,Images/MSR-VTT-videoTestVideo_video8595-shot1_0/img9.jpg,Images/MSR-VTT-videoTestVideo_video8595-shot1_0/img16.jpg,Images/MSR-VTT-videoTestVideo_video8595-shot1_0/img22.jpg,Images/MSR-VTT-videoTestVideo_video8595-shot1_0/img71.jpg,Images/MSR-VTT-videoTestVideo_video8595-shot1_0/img81.jpg,Images/MSR-VTT-videoTestVideo_video8595-shot1_0/img86.jpg,Images/MSR-VTT-videoTestVideo_video8595-shot1_0/img91.jpg,Images/MSR-VTT-videoTestVideo_video8595-shot1_0/img92.jpg,777,23,0,2022-06-15_16h41.05.991,annotation,2021.2.3,Win32,60.0240096,,
,,,,,,,,,,,,,,,,,-0.205683356,0.130581867,1,0,0,image_1,0,54,54,5,1,21,The image is blurred and it looks like two piles of ribs are being set on a plate.,H,0,0,YouCook-video0017-shot2_1,Images/YouCook-video0017-shot2_1/img98.jpg,Images/YouCook-video0017-shot2_1/img100.jpg,Images/YouCook-video0017-shot2_1/img101.jpg,Images/YouCook-video0017-shot2_1/img104.jpg,Images/YouCook-video0017-shot2_1/img105.jpg,Images/YouCook-video0017-shot2_1/img107.jpg,Images/YouCook-video0017-shot2_1/img111.jpg,Images/YouCook-video0017-shot2_1/img116.jpg,Images/YouCook-video0017-shot2_1/img121.jpg,Images/YouCook-video0017-shot2_1/img129.jpg,98,23,0,2022-06-15_16h41.05.991,annotation,2021.2.3,Win32,60.0240096,,
,,,,,,,,,,,,,,,,,0.546684709,-0.119756428,1,0,0,image_9,0,55,55,22,1,587,There's a yellow truck with a bottle painted on the side. The neck of the bottle is cut off by the right edge.,H,0,9,MSR-VTT-videoTestVideo_video8468-shot1_2,Images/MSR-VTT-videoTestVideo_video8468-shot1_2/img158.jpg,Images/MSR-VTT-videoTestVideo_video8468-shot1_2/img159.jpg,Images/MSR-VTT-videoTestVideo_video8468-shot1_2/img161.jpg,Images/MSR-VTT-videoTestVideo_video8468-shot1_2/img166.jpg,Images/MSR-VTT-videoTestVideo_video8468-shot1_2/img169.jpg,Images/MSR-VTT-videoTestVideo_video8468-shot1_2/img171.jpg,Images/MSR-VTT-videoTestVideo_video8468-shot1_2/img176.jpg,Images/MSR-VTT-videoTestVideo_video8468-shot1_2/img178.jpg,Images/MSR-VTT-videoTestVideo_video8468-shot1_2/img189.jpg,Images/MSR-VTT-videoTestVideo_video8468-shot1_2/img194.jpg,746,23,0,2022-06-15_16h41.05.991,annotation,2021.2.3,Win32,60.0240096,,
,,,,,,,,,,,,,,,,,0.261163735,-0.168470907,1,0,0,image_8,0,56,56,4,1,886,The food is looked down on from above. There is no human in the frame. Most of the words and numbers in the box is visible except the very last one.,H,1,9,video-storytelling-videobirthday_fwpYnUDbusw-shot18_9,Images/video-storytelling-videobirthday_fwpYnUDbusw-shot18_9/img432.jpg,Images/video-storytelling-videobirthday_fwpYnUDbusw-shot18_9/img434.jpg,Images/video-storytelling-videobirthday_fwpYnUDbusw-shot18_9/img435.jpg,Images/video-storytelling-videobirthday_fwpYnUDbusw-shot18_9/img438.jpg,Images/video-storytelling-videobirthday_fwpYnUDbusw-shot18_9/img442.jpg,Images/video-storytelling-videobirthday_fwpYnUDbusw-shot18_9/img449.jpg,Images/video-storytelling-videobirthday_fwpYnUDbusw-shot18_9/img456.jpg,Images/video-storytelling-videobirthday_fwpYnUDbusw-shot18_9/img461.jpg,Images/video-storytelling-videobirthday_fwpYnUDbusw-shot18_9/img463.jpg,Images/video-storytelling-videobirthday_fwpYnUDbusw-shot18_9/img469.jpg,359,23,0,2022-06-15_16h41.05.991,annotation,2021.2.3,Win32,60.0240096,,
,,,,,,,,,,,,,,,,,-0.470906631,0.127875507,1,0,0,image_0,0,57,57,20,1,1128,A couple of people sitting in front of a television.,M,0,2,MSR-VTT-videoTestVideo_video7650-shot1_0,Images/MSR-VTT-videoTestVideo_video7650-shot1_0/img0.jpg,Images/MSR-VTT-videoTestVideo_video7650-shot1_0/img7.jpg,Images/MSR-VTT-videoTestVideo_video7650-shot1_0/img8.jpg,Images/MSR-VTT-videoTestVideo_video7650-shot1_0/img9.jpg,Images/MSR-VTT-videoTestVideo_video7650-shot1_0/img11.jpg,Images/MSR-VTT-videoTestVideo_video7650-shot1_0/img13.jpg,Images/MSR-VTT-videoTestVideo_video7650-shot1_0/img17.jpg,Images/MSR-VTT-videoTestVideo_video7650-shot1_0/img19.jpg,Images/MSR-VTT-videoTestVideo_video7650-shot1_0/img22.jpg,Images/MSR-VTT-videoTestVideo_video7650-shot1_0/img51.jpg,805,23,0,2022-06-15_16h41.05.991,annotation,2021.2.3,Win32,60.0240096,,
,,,,,,,,,,,,,,,,,-0.533152909,0.110284168,1,0,0,image_0,0,58,58,42,1,63,The large cat is cut off under its eyes at the top edge and is blurry.,H,0,1,MSR-VTT-videoTestVideo_video9672-shot1_1,Images/MSR-VTT-videoTestVideo_video9672-shot1_1/img53.jpg,Images/MSR-VTT-videoTestVideo_video9672-shot1_1/img64.jpg,Images/MSR-VTT-videoTestVideo_video9672-shot1_1/img65.jpg,Images/MSR-VTT-videoTestVideo_video9672-shot1_1/img69.jpg,Images/MSR-VTT-videoTestVideo_video9672-shot1_1/img78.jpg,Images/MSR-VTT-videoTestVideo_video9672-shot1_1/img81.jpg,Images/MSR-VTT-videoTestVideo_video9672-shot1_1/img82.jpg,Images/MSR-VTT-videoTestVideo_video9672-shot1_1/img88.jpg,Images/MSR-VTT-videoTestVideo_video9672-shot1_1/img95.jpg,Images/MSR-VTT-videoTestVideo_video9672-shot1_1/img100.jpg,467,23,0,2022-06-15_16h41.05.991,annotation,2021.2.3,Win32,60.0240096,,
,,,,,,,,,,,,,,,,,-0.246278755,0.112990528,1,0,0,image_1,0,59,59,8,1,1477,A group of people standing in front of a table.,M,0,1,video-storytelling-videowedding_de8dLXvgV-I-shot28_0,Images/video-storytelling-videowedding_de8dLXvgV-I-shot28_0/img0.jpg,Images/video-storytelling-videowedding_de8dLXvgV-I-shot28_0/img60.jpg,Images/video-storytelling-videowedding_de8dLXvgV-I-shot28_0/img68.jpg,Images/video-storytelling-videowedding_de8dLXvgV-I-shot28_0/img81.jpg,Images/video-storytelling-videowedding_de8dLXvgV-I-shot28_0/img87.jpg,Images/video-storytelling-videowedding_de8dLXvgV-I-shot28_0/img114.jpg,Images/video-storytelling-videowedding_de8dLXvgV-I-shot28_0/img121.jpg,Images/video-storytelling-videowedding_de8dLXvgV-I-shot28_0/img179.jpg,Images/video-storytelling-videowedding_de8dLXvgV-I-shot28_0/img221.jpg,Images/video-storytelling-videowedding_de8dLXvgV-I-shot28_0/img248.jpg,1096,23,0,2022-06-15_16h41.05.991,annotation,2021.2.3,Win32,60.0240096,,
,,,,,,,,,,,,,,,,,-0.48579161,-0.156292287,1,0,0,image_5,0,60,60,0,1,538,"There are two trees behind and to the right of the person in the dog costume, one tree partially covered by his head to the left, and one tree almost out of the frame to the left.",H,0,5,video-storytelling-videobirthday__amwPjAcoC8-shot63_3,Images/video-storytelling-videobirthday__amwPjAcoC8-shot63_3/img92.jpg,Images/video-storytelling-videobirthday__amwPjAcoC8-shot63_3/img95.jpg,Images/video-storytelling-videobirthday__amwPjAcoC8-shot63_3/img96.jpg,Images/video-storytelling-videobirthday__amwPjAcoC8-shot63_3/img98.jpg,Images/video-storytelling-videobirthday__amwPjAcoC8-shot63_3/img99.jpg,Images/video-storytelling-videobirthday__amwPjAcoC8-shot63_3/img101.jpg,Images/video-storytelling-videobirthday__amwPjAcoC8-shot63_3/img106.jpg,Images/video-storytelling-videobirthday__amwPjAcoC8-shot63_3/img108.jpg,Images/video-storytelling-videobirthday__amwPjAcoC8-shot63_3/img110.jpg,Images/video-storytelling-videobirthday__amwPjAcoC8-shot63_3/img112.jpg,677,23,0,2022-06-15_16h41.05.991,annotation,2021.2.3,Win32,60.0240096,,
,,,,,,,,,,,,,,,,,-0.469553451,0.156292287,1,0,0,image_0,0,61,61,21,1,123,The man's left hand who is behind the woman is blocking part of his own face. ,H,0,0,MSR-VTT-videoTestVideo_video9211-shot1_0,Images/MSR-VTT-videoTestVideo_video9211-shot1_0/img0.jpg,Images/MSR-VTT-videoTestVideo_video9211-shot1_0/img2.jpg,Images/MSR-VTT-videoTestVideo_video9211-shot1_0/img6.jpg,Images/MSR-VTT-videoTestVideo_video9211-shot1_0/img9.jpg,Images/MSR-VTT-videoTestVideo_video9211-shot1_0/img14.jpg,Images/MSR-VTT-videoTestVideo_video9211-shot1_0/img17.jpg,Images/MSR-VTT-videoTestVideo_video9211-shot1_0/img22.jpg,Images/MSR-VTT-videoTestVideo_video9211-shot1_0/img28.jpg,Images/MSR-VTT-videoTestVideo_video9211-shot1_0/img32.jpg,Images/MSR-VTT-videoTestVideo_video9211-shot1_0/img38.jpg,291,23,0,2022-06-15_16h41.05.991,annotation,2021.2.3,Win32,60.0240096,,
,,,,,,,,,,,,,,,,,0.01894452,0.108930988,1,0,0,image_2,0,62,62,36,1,1738,A couple of men standing next to each other.,M,0,5,MSR-VTT-videoTestVideo_video9823-shot7_0,Images/MSR-VTT-videoTestVideo_video9823-shot7_0/img0.jpg,Images/MSR-VTT-videoTestVideo_video9823-shot7_0/img1.jpg,Images/MSR-VTT-videoTestVideo_video9823-shot7_0/img3.jpg,Images/MSR-VTT-videoTestVideo_video9823-shot7_0/img9.jpg,Images/MSR-VTT-videoTestVideo_video9823-shot7_0/img13.jpg,Images/MSR-VTT-videoTestVideo_video9823-shot7_0/img18.jpg,Images/MSR-VTT-videoTestVideo_video9823-shot7_0/img23.jpg,Images/MSR-VTT-videoTestVideo_video9823-shot7_0/img32.jpg,Images/MSR-VTT-videoTestVideo_video9823-shot7_0/img39.jpg,Images/MSR-VTT-videoTestVideo_video9823-shot7_0/img42.jpg,473,23,0,2022-06-15_16h41.05.991,annotation,2021.2.3,Win32,60.0240096,,
,,,,,,,,,,,,,,,,,,,,,,,,,,,,,,,,,,,,,,,,,,,,,,,2022-06-15_16h41.05.991,annotation,2021.2.3,Win32,60.0240096,space,32.93
