mturk,key_resp_2.keys,key_resp_2.rt,key_resp_3.keys,key_resp_3.rt,mouse_2.x,mouse_2.y,mouse_2.leftButton,mouse_2.midButton,mouse_2.rightButton,mouse_2.clicked_name,key_resp_5.keys,key_resp_5.rt,key_resp.keys,key_resp.rt,key_resp_6.keys,key_resp_6.rt,mouse.x,mouse.y,mouse.leftButton,mouse.midButton,mouse.rightButton,mouse.time,mouse.clicked_name,trials.thisRepN,trials.thisTrialN,trials.thisN,trials.thisIndex,trials.ran,N,caption,class_caption,model_guessed,target_idx,image_set,img1,img2,img3,img4,img5,img6,img7,img8,img9,img10,Q_id,block,is_check,date,expName,psychopyVersion,OS,frameRate,key_resp_7.keys,key_resp_7.rt
3900719,space,5.9879,space,6.1588,0.262037065,0.102777764,1,0,0,ex4,space,5.1515,space,8.1253,space,1.931,-0.503703683,-0.169444473,1,0,0,30.4085,image_5,0,0,0,7,1,1808,a close up of a person cutting up a candy bowl.,M,0,7,YouCook-video0063-shot17_1,Images/YouCook-video0063-shot17_1/img90.jpg,Images/YouCook-video0063-shot17_1/img97.jpg,Images/YouCook-video0063-shot17_1/img110.jpg,Images/YouCook-video0063-shot17_1/img112.jpg,Images/YouCook-video0063-shot17_1/img117.jpg,Images/YouCook-video0063-shot17_1/img125.jpg,Images/YouCook-video0063-shot17_1/img126.jpg,Images/YouCook-video0063-shot17_1/img132.jpg,Images/YouCook-video0063-shot17_1/img144.jpg,Images/YouCook-video0063-shot17_1/img146.jpg,1118,13,0,2022-06-17_10h27.39.700,annotation,2021.2.3,Win32,59.99520038,,
,,,,,,,,,,,,,,,,,0.038888931,0.14166666,1,0,0,5.0304,image_2,0,1,1,61,1,3,A grey elephant with golden leaves on it. ,H,,2,open-images-1745_0ed62fe71809b2f5,Checks/check4/open-images-2609_3f72daeb23764ecfimg6.jpg,Checks/check4/open-images-1928_60679e2899870e08img1.jpg,Checks/check4/open-images-1745_0ed62fe71809b2f5img2.jpg,Checks/check4/open-images-1811_9ae6351c7f7565edimg0.jpg,Checks/check4/open-images-1721_6f04da11945ea492img3.jpg,Checks/check4/open-images-1907_5f9be3e4ea5e22c7img2.jpg,Checks/check4/open-images-580_0ddffb9c25141999img1.jpg,Checks/check4/open-images-2924_0645dcbcf998fed9img3.jpg,Checks/check4/open-images-869_856ecbcb5faf76e3img8.jpg,Checks/check4/open-images-250_02039517e63a91fbimg1.jpg,,,1,2022-06-17_10h27.39.700,annotation,2021.2.3,Win32,59.99520038,,
,,,,,,,,,,,,,,,,,-0.215740698,-0.125,1,0,0,28.7971,image_6,0,2,2,39,1,462,The man's face can be seen facing left but the woman's face is obscured by her hair. ,H,1,6,MSR-VTT-videoTestVideo_video7624-shot3_1,Images/MSR-VTT-videoTestVideo_video7624-shot3_1/img98.jpg,Images/MSR-VTT-videoTestVideo_video7624-shot3_1/img105.jpg,Images/MSR-VTT-videoTestVideo_video7624-shot3_1/img114.jpg,Images/MSR-VTT-videoTestVideo_video7624-shot3_1/img124.jpg,Images/MSR-VTT-videoTestVideo_video7624-shot3_1/img128.jpg,Images/MSR-VTT-videoTestVideo_video7624-shot3_1/img131.jpg,Images/MSR-VTT-videoTestVideo_video7624-shot3_1/img136.jpg,Images/MSR-VTT-videoTestVideo_video7624-shot3_1/img142.jpg,Images/MSR-VTT-videoTestVideo_video7624-shot3_1/img150.jpg,Images/MSR-VTT-videoTestVideo_video7624-shot3_1/img166.jpg,61,13,0,2022-06-17_10h27.39.700,annotation,2021.2.3,Win32,59.99520038,,
,,,,,,,,,,,,,,,,,0.559259344,-0.179629644,1,0,0,24.8774,image_9,0,3,3,30,1,1871,A group of people standing in front of a horse.,M,0,4,MSR-VTT-videoTestVideo_video9248-shot0_1,Images/MSR-VTT-videoTestVideo_video9248-shot0_1/img62.jpg,Images/MSR-VTT-videoTestVideo_video9248-shot0_1/img71.jpg,Images/MSR-VTT-videoTestVideo_video9248-shot0_1/img88.jpg,Images/MSR-VTT-videoTestVideo_video9248-shot0_1/img92.jpg,Images/MSR-VTT-videoTestVideo_video9248-shot0_1/img98.jpg,Images/MSR-VTT-videoTestVideo_video9248-shot0_1/img125.jpg,Images/MSR-VTT-videoTestVideo_video9248-shot0_1/img147.jpg,Images/MSR-VTT-videoTestVideo_video9248-shot0_1/img153.jpg,Images/MSR-VTT-videoTestVideo_video9248-shot0_1/img163.jpg,Images/MSR-VTT-videoTestVideo_video9248-shot0_1/img193.jpg,1728,13,0,2022-06-17_10h27.39.700,annotation,2021.2.3,Win32,59.99520038,,
,,,,,,,,,,,,,,,,,0.005555541,-0.160185213,1,0,0,14.707,image_7,0,4,4,6,1,448,The car is making a turn to the right.  Only the front half of the van in the driveway across the street can be seen. ,H,0,7,MSR-VTT-videoTestVideo_video9706-shot1_0,Images/MSR-VTT-videoTestVideo_video9706-shot1_0/img0.jpg,Images/MSR-VTT-videoTestVideo_video9706-shot1_0/img9.jpg,Images/MSR-VTT-videoTestVideo_video9706-shot1_0/img22.jpg,Images/MSR-VTT-videoTestVideo_video9706-shot1_0/img24.jpg,Images/MSR-VTT-videoTestVideo_video9706-shot1_0/img34.jpg,Images/MSR-VTT-videoTestVideo_video9706-shot1_0/img49.jpg,Images/MSR-VTT-videoTestVideo_video9706-shot1_0/img55.jpg,Images/MSR-VTT-videoTestVideo_video9706-shot1_0/img66.jpg,Images/MSR-VTT-videoTestVideo_video9706-shot1_0/img67.jpg,Images/MSR-VTT-videoTestVideo_video9706-shot1_0/img77.jpg,1181,13,0,2022-06-17_10h27.39.700,annotation,2021.2.3,Win32,59.99520038,,
,,,,,,,,,,,,,,,,,0.529629601,0.101851852,1,0,0,27.6834,image_4,0,5,5,34,1,312,"The bride is left of center in the ""door-frame"" and is not overlapping any part of the frame. You can see that the man closest to us is wearing glasses. The woman next to him is touching her eye with her finger.",H,0,5,video-storytelling-videowedding_Bp8t824h5NE-shot44_0,Images/video-storytelling-videowedding_Bp8t824h5NE-shot44_0/img0.jpg,Images/video-storytelling-videowedding_Bp8t824h5NE-shot44_0/img4.jpg,Images/video-storytelling-videowedding_Bp8t824h5NE-shot44_0/img22.jpg,Images/video-storytelling-videowedding_Bp8t824h5NE-shot44_0/img48.jpg,Images/video-storytelling-videowedding_Bp8t824h5NE-shot44_0/img62.jpg,Images/video-storytelling-videowedding_Bp8t824h5NE-shot44_0/img65.jpg,Images/video-storytelling-videowedding_Bp8t824h5NE-shot44_0/img73.jpg,Images/video-storytelling-videowedding_Bp8t824h5NE-shot44_0/img83.jpg,Images/video-storytelling-videowedding_Bp8t824h5NE-shot44_0/img99.jpg,Images/video-storytelling-videowedding_Bp8t824h5NE-shot44_0/img120.jpg,1874,13,0,2022-06-17_10h27.39.700,annotation,2021.2.3,Win32,59.99520038,,
,,,,,,,,,,,,,,,,,-0.461111104,-0.106481481,1,0,0,6.0279,image_5,0,6,6,59,1,1,The only picture of a hawk.  It is looking to the left.  You see lots of branches and darker blue sky. ,H,,5,open-images-958_686caac9c5b322e7,Checks/check2/open-images-2603_1b5152f01f0093e7img3.jpg,Checks/check2/open-images-1836_069810916ce5d675img8.jpg,Checks/check2/open-images-974_0748fdedc4bf8b7bimg2.jpg,Checks/check2/open-images-617_01fb725fb1aa7b04img6.jpg,Checks/check2/open-images-507_047769e1f977cd97img2.jpg,Checks/check2/open-images-958_686caac9c5b322e7img5.jpg,Checks/check2/open-images-1278_21851d9bf5dc05c9img7.jpg,Checks/check2/open-images-2424_05f04546e01499f2img0.jpg,Checks/check2/open-images-1529_1442b11a10a6aeadimg3.jpg,Checks/check2/open-images-514_2c523ddedc2561d4img1.jpg,,,1,2022-06-17_10h27.39.700,annotation,2021.2.3,Win32,59.99520038,,
,,,,,,,,,,,,,,,,,0.513888889,-0.166666667,1,0,0,23.9023,image_9,0,7,7,25,1,1819,A person in a kitchen utensil is using a food processor.,M,1,7,MSR-VTT-videoTestVideo_video9693-shot2_1,Images/MSR-VTT-videoTestVideo_video9693-shot2_1/img68.jpg,Images/MSR-VTT-videoTestVideo_video9693-shot2_1/img85.jpg,Images/MSR-VTT-videoTestVideo_video9693-shot2_1/img117.jpg,Images/MSR-VTT-videoTestVideo_video9693-shot2_1/img121.jpg,Images/MSR-VTT-videoTestVideo_video9693-shot2_1/img128.jpg,Images/MSR-VTT-videoTestVideo_video9693-shot2_1/img132.jpg,Images/MSR-VTT-videoTestVideo_video9693-shot2_1/img134.jpg,Images/MSR-VTT-videoTestVideo_video9693-shot2_1/img152.jpg,Images/MSR-VTT-videoTestVideo_video9693-shot2_1/img155.jpg,Images/MSR-VTT-videoTestVideo_video9693-shot2_1/img158.jpg,1329,13,0,2022-06-17_10h27.39.700,annotation,2021.2.3,Win32,59.99520038,,
,,,,,,,,,,,,,,,,,-0.207407422,0.136111118,1,0,0,18.9405,image_1,0,8,8,0,1,1569,A man standing next to a motorcycle in a room.,M,0,5,MSR-VTT-videoTestVideo_video7737-shot0_0,Images/MSR-VTT-videoTestVideo_video7737-shot0_0/img6.jpg,Images/MSR-VTT-videoTestVideo_video7737-shot0_0/img14.jpg,Images/MSR-VTT-videoTestVideo_video7737-shot0_0/img24.jpg,Images/MSR-VTT-videoTestVideo_video7737-shot0_0/img30.jpg,Images/MSR-VTT-videoTestVideo_video7737-shot0_0/img37.jpg,Images/MSR-VTT-videoTestVideo_video7737-shot0_0/img51.jpg,Images/MSR-VTT-videoTestVideo_video7737-shot0_0/img61.jpg,Images/MSR-VTT-videoTestVideo_video7737-shot0_0/img63.jpg,Images/MSR-VTT-videoTestVideo_video7737-shot0_0/img67.jpg,Images/MSR-VTT-videoTestVideo_video7737-shot0_0/img68.jpg,1224,13,0,2022-06-17_10h27.39.700,annotation,2021.2.3,Win32,59.99520038,,
,,,,,,,,,,,,,,,,,0.180555556,-0.139814801,1,0,0,25.5789,image_8,0,9,9,5,1,275,There is a yellow square thing behind the back the the rower which is right above the yellow ball. Both rowers are facing towards the right of the picture. ,H,0,2,MSR-VTT-videoTestVideo_video8079-shot1_2,Images/MSR-VTT-videoTestVideo_video8079-shot1_2/img165.jpg,Images/MSR-VTT-videoTestVideo_video8079-shot1_2/img167.jpg,Images/MSR-VTT-videoTestVideo_video8079-shot1_2/img174.jpg,Images/MSR-VTT-videoTestVideo_video8079-shot1_2/img175.jpg,Images/MSR-VTT-videoTestVideo_video8079-shot1_2/img179.jpg,Images/MSR-VTT-videoTestVideo_video8079-shot1_2/img189.jpg,Images/MSR-VTT-videoTestVideo_video8079-shot1_2/img201.jpg,Images/MSR-VTT-videoTestVideo_video8079-shot1_2/img208.jpg,Images/MSR-VTT-videoTestVideo_video8079-shot1_2/img216.jpg,Images/MSR-VTT-videoTestVideo_video8079-shot1_2/img217.jpg,2001,13,0,2022-06-17_10h27.39.700,annotation,2021.2.3,Win32,59.99520038,,
,,,,,,,,,,,,,,,,,-0.000925912,-0.194444444,1,0,0,19.4964,image_7,0,10,10,40,1,637,"the guy on blue with glasses on is looking at the ground behind him, no one is seen in the background",H,0,7,video-storytelling-videocamping_dBXYM3dQTSo-shot83_3,Images/video-storytelling-videocamping_dBXYM3dQTSo-shot83_3/img202.jpg,Images/video-storytelling-videocamping_dBXYM3dQTSo-shot83_3/img225.jpg,Images/video-storytelling-videocamping_dBXYM3dQTSo-shot83_3/img237.jpg,Images/video-storytelling-videocamping_dBXYM3dQTSo-shot83_3/img242.jpg,Images/video-storytelling-videocamping_dBXYM3dQTSo-shot83_3/img254.jpg,Images/video-storytelling-videocamping_dBXYM3dQTSo-shot83_3/img273.jpg,Images/video-storytelling-videocamping_dBXYM3dQTSo-shot83_3/img311.jpg,Images/video-storytelling-videocamping_dBXYM3dQTSo-shot83_3/img322.jpg,Images/video-storytelling-videocamping_dBXYM3dQTSo-shot83_3/img326.jpg,Images/video-storytelling-videocamping_dBXYM3dQTSo-shot83_3/img351.jpg,1517,13,0,2022-06-17_10h27.39.700,annotation,2021.2.3,Win32,59.99520038,,
,,,,,,,,,,,,,,,,,-0.243518476,-0.121296282,1,0,0,19.4305,image_6,0,11,11,32,1,1397,A table topped with a plate of food on top of a table.,M,0,1,video-storytelling-videochristmas_5RR_sRzKODA-shot39_0,Images/video-storytelling-videochristmas_5RR_sRzKODA-shot39_0/img0.jpg,Images/video-storytelling-videochristmas_5RR_sRzKODA-shot39_0/img10.jpg,Images/video-storytelling-videochristmas_5RR_sRzKODA-shot39_0/img17.jpg,Images/video-storytelling-videochristmas_5RR_sRzKODA-shot39_0/img23.jpg,Images/video-storytelling-videochristmas_5RR_sRzKODA-shot39_0/img29.jpg,Images/video-storytelling-videochristmas_5RR_sRzKODA-shot39_0/img35.jpg,Images/video-storytelling-videochristmas_5RR_sRzKODA-shot39_0/img40.jpg,Images/video-storytelling-videochristmas_5RR_sRzKODA-shot39_0/img46.jpg,Images/video-storytelling-videochristmas_5RR_sRzKODA-shot39_0/img48.jpg,Images/video-storytelling-videochristmas_5RR_sRzKODA-shot39_0/img53.jpg,1685,13,0,2022-06-17_10h27.39.700,annotation,2021.2.3,Win32,59.99520038,,
,,,,,,,,,,,,,,,,,-0.461111104,-0.14907406,1,0,0,24.191,image_5,0,12,12,9,1,1567,A group of macaroni and guinea pigs sitting on top of a table.,M,0,6,MSR-VTT-videoTestVideo_video8536-shot0_0,Images/MSR-VTT-videoTestVideo_video8536-shot0_0/img0.jpg,Images/MSR-VTT-videoTestVideo_video8536-shot0_0/img2.jpg,Images/MSR-VTT-videoTestVideo_video8536-shot0_0/img7.jpg,Images/MSR-VTT-videoTestVideo_video8536-shot0_0/img11.jpg,Images/MSR-VTT-videoTestVideo_video8536-shot0_0/img17.jpg,Images/MSR-VTT-videoTestVideo_video8536-shot0_0/img20.jpg,Images/MSR-VTT-videoTestVideo_video8536-shot0_0/img28.jpg,Images/MSR-VTT-videoTestVideo_video8536-shot0_0/img35.jpg,Images/MSR-VTT-videoTestVideo_video8536-shot0_0/img36.jpg,Images/MSR-VTT-videoTestVideo_video8536-shot0_0/img45.jpg,1094,13,0,2022-06-17_10h27.39.700,annotation,2021.2.3,Win32,59.99520038,,
,,,,,,,,,,,,,,,,,-0.447222215,-0.176851838,1,0,0,24.8947,image_5,0,13,13,10,1,2020,A young girl holding a blue and white cell phone.,M,0,5,MSR-VTT-videoTestVideo_video8541-shot2_0,Images/MSR-VTT-videoTestVideo_video8541-shot2_0/img0.jpg,Images/MSR-VTT-videoTestVideo_video8541-shot2_0/img4.jpg,Images/MSR-VTT-videoTestVideo_video8541-shot2_0/img13.jpg,Images/MSR-VTT-videoTestVideo_video8541-shot2_0/img23.jpg,Images/MSR-VTT-videoTestVideo_video8541-shot2_0/img40.jpg,Images/MSR-VTT-videoTestVideo_video8541-shot2_0/img62.jpg,Images/MSR-VTT-videoTestVideo_video8541-shot2_0/img95.jpg,Images/MSR-VTT-videoTestVideo_video8541-shot2_0/img98.jpg,Images/MSR-VTT-videoTestVideo_video8541-shot2_0/img118.jpg,Images/MSR-VTT-videoTestVideo_video8541-shot2_0/img122.jpg,2084,13,0,2022-06-17_10h27.39.700,annotation,2021.2.3,Win32,59.99520038,,
,,,,,,,,,,,,,,,,,0.496296353,-0.134259259,1,0,0,19.7707,image_9,0,14,14,8,1,1518,A little girl playing with a snowboard on the floor.,M,0,6,video-storytelling-videochristmas_5RR_sRzKODA-shot17_6,Images/video-storytelling-videochristmas_5RR_sRzKODA-shot17_6/img297.jpg,Images/video-storytelling-videochristmas_5RR_sRzKODA-shot17_6/img302.jpg,Images/video-storytelling-videochristmas_5RR_sRzKODA-shot17_6/img309.jpg,Images/video-storytelling-videochristmas_5RR_sRzKODA-shot17_6/img313.jpg,Images/video-storytelling-videochristmas_5RR_sRzKODA-shot17_6/img319.jpg,Images/video-storytelling-videochristmas_5RR_sRzKODA-shot17_6/img328.jpg,Images/video-storytelling-videochristmas_5RR_sRzKODA-shot17_6/img332.jpg,Images/video-storytelling-videochristmas_5RR_sRzKODA-shot17_6/img337.jpg,Images/video-storytelling-videochristmas_5RR_sRzKODA-shot17_6/img345.jpg,Images/video-storytelling-videochristmas_5RR_sRzKODA-shot17_6/img349.jpg,2019,13,0,2022-06-17_10h27.39.700,annotation,2021.2.3,Win32,59.99520038,,
,,,,,,,,,,,,,,,,,-0.558333326,-0.156481496,1,0,0,9.101,image_5,0,15,15,38,1,840,The two pieces of lettuce are held as if they form a V.,H,0,5,YouCook-video0035-shot7_0,Images/YouCook-video0035-shot7_0/img0.jpg,Images/YouCook-video0035-shot7_0/img5.jpg,Images/YouCook-video0035-shot7_0/img6.jpg,Images/YouCook-video0035-shot7_0/img15.jpg,Images/YouCook-video0035-shot7_0/img24.jpg,Images/YouCook-video0035-shot7_0/img32.jpg,Images/YouCook-video0035-shot7_0/img43.jpg,Images/YouCook-video0035-shot7_0/img52.jpg,Images/YouCook-video0035-shot7_0/img59.jpg,Images/YouCook-video0035-shot7_0/img66.jpg,1574,13,0,2022-06-17_10h27.39.700,annotation,2021.2.3,Win32,59.99520038,,
,,,,,,,,,,,,,,,,,0.008333347,0.143518519,1,0,0,19.0242,image_2,0,16,16,57,1,1552,A little boy playing with a baby on a Christmas tree.,M,0,7,video-storytelling-videochristmas_5RR_sRzKODA-shot20_8,Images/video-storytelling-videochristmas_5RR_sRzKODA-shot20_8/img357.jpg,Images/video-storytelling-videochristmas_5RR_sRzKODA-shot20_8/img365.jpg,Images/video-storytelling-videochristmas_5RR_sRzKODA-shot20_8/img375.jpg,Images/video-storytelling-videochristmas_5RR_sRzKODA-shot20_8/img404.jpg,Images/video-storytelling-videochristmas_5RR_sRzKODA-shot20_8/img421.jpg,Images/video-storytelling-videochristmas_5RR_sRzKODA-shot20_8/img435.jpg,Images/video-storytelling-videochristmas_5RR_sRzKODA-shot20_8/img453.jpg,Images/video-storytelling-videochristmas_5RR_sRzKODA-shot20_8/img456.jpg,Images/video-storytelling-videochristmas_5RR_sRzKODA-shot20_8/img458.jpg,Images/video-storytelling-videochristmas_5RR_sRzKODA-shot20_8/img460.jpg,650,13,0,2022-06-17_10h27.39.700,annotation,2021.2.3,Win32,59.99520038,,
,,,,,,,,,,,,,,,,,0.486111111,0.114814794,1,0,0,10.1123,image_4,0,17,17,51,1,855,the blue hat on the head of the girl on the right is the closest to touching the top of the image,H,1,3,video-storytelling-videocamping_1OzbiB1TIWI-shot43_10,Images/video-storytelling-videocamping_1OzbiB1TIWI-shot43_10/img544.jpg,Images/video-storytelling-videocamping_1OzbiB1TIWI-shot43_10/img560.jpg,Images/video-storytelling-videocamping_1OzbiB1TIWI-shot43_10/img566.jpg,Images/video-storytelling-videocamping_1OzbiB1TIWI-shot43_10/img574.jpg,Images/video-storytelling-videocamping_1OzbiB1TIWI-shot43_10/img577.jpg,Images/video-storytelling-videocamping_1OzbiB1TIWI-shot43_10/img583.jpg,Images/video-storytelling-videocamping_1OzbiB1TIWI-shot43_10/img593.jpg,Images/video-storytelling-videocamping_1OzbiB1TIWI-shot43_10/img606.jpg,Images/video-storytelling-videocamping_1OzbiB1TIWI-shot43_10/img607.jpg,Images/video-storytelling-videocamping_1OzbiB1TIWI-shot43_10/img610.jpg,676,13,0,2022-06-17_10h27.39.700,annotation,2021.2.3,Win32,59.99520038,,
,,,,,,,,,,,,,,,,,0.235185199,-0.154629672,1,0,0,16.2047,image_8,0,18,18,46,1,1053,A group of people holding umbrellas in front of a building.,M,0,6,video-storytelling-videowedding_de8dLXvgV-I-shot6_0,Images/video-storytelling-videowedding_de8dLXvgV-I-shot6_0/img0.jpg,Images/video-storytelling-videowedding_de8dLXvgV-I-shot6_0/img16.jpg,Images/video-storytelling-videowedding_de8dLXvgV-I-shot6_0/img25.jpg,Images/video-storytelling-videowedding_de8dLXvgV-I-shot6_0/img40.jpg,Images/video-storytelling-videowedding_de8dLXvgV-I-shot6_0/img53.jpg,Images/video-storytelling-videowedding_de8dLXvgV-I-shot6_0/img60.jpg,Images/video-storytelling-videowedding_de8dLXvgV-I-shot6_0/img69.jpg,Images/video-storytelling-videowedding_de8dLXvgV-I-shot6_0/img72.jpg,Images/video-storytelling-videowedding_de8dLXvgV-I-shot6_0/img81.jpg,Images/video-storytelling-videowedding_de8dLXvgV-I-shot6_0/img91.jpg,346,13,0,2022-06-17_10h27.39.700,annotation,2021.2.3,Win32,59.99520038,,
,,,,,,,,,,,,,,,,,0.244444459,-0.167592578,1,0,0,27.6946,image_8,0,19,19,42,1,1934,A man standing next to a woman in a mirror.,M,0,3,MSR-VTT-videoTestVideo_video8411-shot1_1,Images/MSR-VTT-videoTestVideo_video8411-shot1_1/img106.jpg,Images/MSR-VTT-videoTestVideo_video8411-shot1_1/img115.jpg,Images/MSR-VTT-videoTestVideo_video8411-shot1_1/img125.jpg,Images/MSR-VTT-videoTestVideo_video8411-shot1_1/img142.jpg,Images/MSR-VTT-videoTestVideo_video8411-shot1_1/img152.jpg,Images/MSR-VTT-videoTestVideo_video8411-shot1_1/img185.jpg,Images/MSR-VTT-videoTestVideo_video8411-shot1_1/img219.jpg,Images/MSR-VTT-videoTestVideo_video8411-shot1_1/img248.jpg,Images/MSR-VTT-videoTestVideo_video8411-shot1_1/img265.jpg,Images/MSR-VTT-videoTestVideo_video8411-shot1_1/img273.jpg,299,13,0,2022-06-17_10h27.39.700,annotation,2021.2.3,Win32,59.99520038,,
,,,,,,,,,,,,,,,,,-0.453703704,0.126851859,1,0,0,15.2901,image_0,0,20,20,48,1,487,The woman is walking through the door.  Her right leg is slightly ahead of the left and she is looking down. ,H,0,1,video-storytelling-videobirthday_fwpYnUDbusw-shot18_0,Images/video-storytelling-videobirthday_fwpYnUDbusw-shot18_0/img0.jpg,Images/video-storytelling-videobirthday_fwpYnUDbusw-shot18_0/img2.jpg,Images/video-storytelling-videobirthday_fwpYnUDbusw-shot18_0/img10.jpg,Images/video-storytelling-videobirthday_fwpYnUDbusw-shot18_0/img20.jpg,Images/video-storytelling-videobirthday_fwpYnUDbusw-shot18_0/img29.jpg,Images/video-storytelling-videobirthday_fwpYnUDbusw-shot18_0/img37.jpg,Images/video-storytelling-videobirthday_fwpYnUDbusw-shot18_0/img42.jpg,Images/video-storytelling-videobirthday_fwpYnUDbusw-shot18_0/img46.jpg,Images/video-storytelling-videobirthday_fwpYnUDbusw-shot18_0/img53.jpg,Images/video-storytelling-videobirthday_fwpYnUDbusw-shot18_0/img57.jpg,366,13,0,2022-06-17_10h27.39.700,annotation,2021.2.3,Win32,59.99520038,,
,,,,,,,,,,,,,,,,,-0.051851838,-0.181481467,1,0,0,16.1674,image_7,0,21,21,24,1,1709,A woman is standing in front of a television.,M,0,3,MSR-VTT-videoTestVideo_video8454-shot1_2,Images/MSR-VTT-videoTestVideo_video8454-shot1_2/img173.jpg,Images/MSR-VTT-videoTestVideo_video8454-shot1_2/img181.jpg,Images/MSR-VTT-videoTestVideo_video8454-shot1_2/img184.jpg,Images/MSR-VTT-videoTestVideo_video8454-shot1_2/img188.jpg,Images/MSR-VTT-videoTestVideo_video8454-shot1_2/img206.jpg,Images/MSR-VTT-videoTestVideo_video8454-shot1_2/img220.jpg,Images/MSR-VTT-videoTestVideo_video8454-shot1_2/img225.jpg,Images/MSR-VTT-videoTestVideo_video8454-shot1_2/img228.jpg,Images/MSR-VTT-videoTestVideo_video8454-shot1_2/img229.jpg,Images/MSR-VTT-videoTestVideo_video8454-shot1_2/img230.jpg,1304,13,0,2022-06-17_10h27.39.700,annotation,2021.2.3,Win32,59.99520038,,
,,,,,,,,,,,,,,,,,-0.196296268,0.130555541,1,0,0,11.2286,image_1,0,22,22,44,1,2046,A woman holding a tray of vegetables on top of a table.,M,0,8,YouCook-video0016-shot3_2,Images/YouCook-video0016-shot3_2/img389.jpg,Images/YouCook-video0016-shot3_2/img403.jpg,Images/YouCook-video0016-shot3_2/img416.jpg,Images/YouCook-video0016-shot3_2/img468.jpg,Images/YouCook-video0016-shot3_2/img482.jpg,Images/YouCook-video0016-shot3_2/img500.jpg,Images/YouCook-video0016-shot3_2/img512.jpg,Images/YouCook-video0016-shot3_2/img547.jpg,Images/YouCook-video0016-shot3_2/img558.jpg,Images/YouCook-video0016-shot3_2/img577.jpg,617,13,0,2022-06-17_10h27.39.700,annotation,2021.2.3,Win32,59.99520038,,
,,,,,,,,,,,,,,,,,0.501851824,-0.140740783,1,0,0,7.9064,image_9,0,23,23,15,1,451,There single piece of brown fried ball on a napkin on a plate. There is blurry blue text at the bottom. The ladle is not there.,H,0,9,MSR-VTT-videoTestVideo_video7973-shot3_0,Images/MSR-VTT-videoTestVideo_video7973-shot3_0/img0.jpg,Images/MSR-VTT-videoTestVideo_video7973-shot3_0/img16.jpg,Images/MSR-VTT-videoTestVideo_video7973-shot3_0/img17.jpg,Images/MSR-VTT-videoTestVideo_video7973-shot3_0/img20.jpg,Images/MSR-VTT-videoTestVideo_video7973-shot3_0/img23.jpg,Images/MSR-VTT-videoTestVideo_video7973-shot3_0/img27.jpg,Images/MSR-VTT-videoTestVideo_video7973-shot3_0/img35.jpg,Images/MSR-VTT-videoTestVideo_video7973-shot3_0/img42.jpg,Images/MSR-VTT-videoTestVideo_video7973-shot3_0/img49.jpg,Images/MSR-VTT-videoTestVideo_video7973-shot3_0/img77.jpg,516,13,0,2022-06-17_10h27.39.700,annotation,2021.2.3,Win32,59.99520038,,
,,,,,,,,,,,,,,,,,0.040740755,-0.167592578,1,0,0,12.8357,image_7,0,24,24,41,1,1420,a close up of a person holding a flower in his hand.,M,0,5,MSR-VTT-videoTestVideo_video9687-shot0_0,Images/MSR-VTT-videoTestVideo_video9687-shot0_0/img0.jpg,Images/MSR-VTT-videoTestVideo_video9687-shot0_0/img8.jpg,Images/MSR-VTT-videoTestVideo_video9687-shot0_0/img9.jpg,Images/MSR-VTT-videoTestVideo_video9687-shot0_0/img11.jpg,Images/MSR-VTT-videoTestVideo_video9687-shot0_0/img14.jpg,Images/MSR-VTT-videoTestVideo_video9687-shot0_0/img20.jpg,Images/MSR-VTT-videoTestVideo_video9687-shot0_0/img21.jpg,Images/MSR-VTT-videoTestVideo_video9687-shot0_0/img31.jpg,Images/MSR-VTT-videoTestVideo_video9687-shot0_0/img33.jpg,Images/MSR-VTT-videoTestVideo_video9687-shot0_0/img35.jpg,1508,13,0,2022-06-17_10h27.39.700,annotation,2021.2.3,Win32,59.99520038,,
,,,,,,,,,,,,,,,,,0.236111111,-0.112037023,1,0,0,23.4443,image_8,0,25,25,14,1,685,"The young girl is at the right edge of the picture, facing right, with arms slightly extended and cut off just below the elbow. ",H,0,7,MSR-VTT-videoTestVideo_video7485-shot2_1,Images/MSR-VTT-videoTestVideo_video7485-shot2_1/img44.jpg,Images/MSR-VTT-videoTestVideo_video7485-shot2_1/img45.jpg,Images/MSR-VTT-videoTestVideo_video7485-shot2_1/img55.jpg,Images/MSR-VTT-videoTestVideo_video7485-shot2_1/img65.jpg,Images/MSR-VTT-videoTestVideo_video7485-shot2_1/img71.jpg,Images/MSR-VTT-videoTestVideo_video7485-shot2_1/img80.jpg,Images/MSR-VTT-videoTestVideo_video7485-shot2_1/img84.jpg,Images/MSR-VTT-videoTestVideo_video7485-shot2_1/img87.jpg,Images/MSR-VTT-videoTestVideo_video7485-shot2_1/img92.jpg,Images/MSR-VTT-videoTestVideo_video7485-shot2_1/img96.jpg,504,13,0,2022-06-17_10h27.39.700,annotation,2021.2.3,Win32,59.99520038,,
,,,,,,,,,,,,,,,,,0.013888889,0.101851852,1,0,0,8.1843,image_2,0,26,26,36,1,1083,A group of people are standing in a store.,M,1,5,MSR-VTT-videoTestVideo_video7522-shot8_0,Images/MSR-VTT-videoTestVideo_video7522-shot8_0/img0.jpg,Images/MSR-VTT-videoTestVideo_video7522-shot8_0/img1.jpg,Images/MSR-VTT-videoTestVideo_video7522-shot8_0/img2.jpg,Images/MSR-VTT-videoTestVideo_video7522-shot8_0/img3.jpg,Images/MSR-VTT-videoTestVideo_video7522-shot8_0/img4.jpg,Images/MSR-VTT-videoTestVideo_video7522-shot8_0/img5.jpg,Images/MSR-VTT-videoTestVideo_video7522-shot8_0/img6.jpg,Images/MSR-VTT-videoTestVideo_video7522-shot8_0/img7.jpg,Images/MSR-VTT-videoTestVideo_video7522-shot8_0/img8.jpg,Images/MSR-VTT-videoTestVideo_video7522-shot8_0/img9.jpg,248,13,0,2022-06-17_10h27.39.700,annotation,2021.2.3,Win32,59.99520038,,
,,,,,,,,,,,,,,,,,0.026851866,-0.154629672,1,0,0,11.6787,image_7,0,27,27,2,1,1689,A bowl filled with food on top of a plate.,M,0,2,YouCook-video0008-shot1_1,Images/YouCook-video0008-shot1_1/img458.jpg,Images/YouCook-video0008-shot1_1/img498.jpg,Images/YouCook-video0008-shot1_1/img545.jpg,Images/YouCook-video0008-shot1_1/img553.jpg,Images/YouCook-video0008-shot1_1/img589.jpg,Images/YouCook-video0008-shot1_1/img603.jpg,Images/YouCook-video0008-shot1_1/img653.jpg,Images/YouCook-video0008-shot1_1/img692.jpg,Images/YouCook-video0008-shot1_1/img742.jpg,Images/YouCook-video0008-shot1_1/img763.jpg,424,13,0,2022-06-17_10h27.39.700,annotation,2021.2.3,Win32,59.99520038,,
,,,,,,,,,,,,,,,,,0.492592564,-0.137037065,1,0,0,12.551,image_9,0,28,28,28,1,1998,A couple of items that are on a bed.,M,0,7,MSR-VTT-videoTestVideo_video8717-shot0_0,Images/MSR-VTT-videoTestVideo_video8717-shot0_0/img0.jpg,Images/MSR-VTT-videoTestVideo_video8717-shot0_0/img1.jpg,Images/MSR-VTT-videoTestVideo_video8717-shot0_0/img3.jpg,Images/MSR-VTT-videoTestVideo_video8717-shot0_0/img4.jpg,Images/MSR-VTT-videoTestVideo_video8717-shot0_0/img5.jpg,Images/MSR-VTT-videoTestVideo_video8717-shot0_0/img6.jpg,Images/MSR-VTT-videoTestVideo_video8717-shot0_0/img8.jpg,Images/MSR-VTT-videoTestVideo_video8717-shot0_0/img9.jpg,Images/MSR-VTT-videoTestVideo_video8717-shot0_0/img12.jpg,Images/MSR-VTT-videoTestVideo_video8717-shot0_0/img17.jpg,1862,13,0,2022-06-17_10h27.39.700,annotation,2021.2.3,Win32,59.99520038,,
,,,,,,,,,,,,,,,,,-0.224074046,-0.156481496,1,0,0,9.5381,image_6,0,29,29,12,1,1756,A refrigerator with lots of different types of vending machines.,M,1,8,MSR-VTT-videoTestVideo_video8129-shot1_6,Images/MSR-VTT-videoTestVideo_video8129-shot1_6/img645.jpg,Images/MSR-VTT-videoTestVideo_video8129-shot1_6/img648.jpg,Images/MSR-VTT-videoTestVideo_video8129-shot1_6/img650.jpg,Images/MSR-VTT-videoTestVideo_video8129-shot1_6/img657.jpg,Images/MSR-VTT-videoTestVideo_video8129-shot1_6/img660.jpg,Images/MSR-VTT-videoTestVideo_video8129-shot1_6/img681.jpg,Images/MSR-VTT-videoTestVideo_video8129-shot1_6/img723.jpg,Images/MSR-VTT-videoTestVideo_video8129-shot1_6/img750.jpg,Images/MSR-VTT-videoTestVideo_video8129-shot1_6/img767.jpg,Images/MSR-VTT-videoTestVideo_video8129-shot1_6/img787.jpg,396,13,0,2022-06-17_10h27.39.700,annotation,2021.2.3,Win32,59.99520038,,
,,,,,,,,,,,,,,,,,-0.01944443,0.15370369,1,0,0,7.47,image_2,0,30,30,21,1,586,The person's hand is holding a white container almost directly above the white sauce in the middle. ,H,0,3,YouCook-video0036-shot0_0,Images/YouCook-video0036-shot0_0/img0.jpg,Images/YouCook-video0036-shot0_0/img21.jpg,Images/YouCook-video0036-shot0_0/img49.jpg,Images/YouCook-video0036-shot0_0/img111.jpg,Images/YouCook-video0036-shot0_0/img116.jpg,Images/YouCook-video0036-shot0_0/img220.jpg,Images/YouCook-video0036-shot0_0/img241.jpg,Images/YouCook-video0036-shot0_0/img247.jpg,Images/YouCook-video0036-shot0_0/img270.jpg,Images/YouCook-video0036-shot0_0/img288.jpg,813,13,0,2022-06-17_10h27.39.700,annotation,2021.2.3,Win32,59.99520038,,
,,,,,,,,,,,,,,,,,-0.003703718,0.142592571,1,0,0,10.5518,image_2,0,31,31,54,1,1693,A man that is standing in front of a television.,M,0,8,MSR-VTT-videoTestVideo_video8239-shot1_4,Images/MSR-VTT-videoTestVideo_video8239-shot1_4/img145.jpg,Images/MSR-VTT-videoTestVideo_video8239-shot1_4/img146.jpg,Images/MSR-VTT-videoTestVideo_video8239-shot1_4/img148.jpg,Images/MSR-VTT-videoTestVideo_video8239-shot1_4/img150.jpg,Images/MSR-VTT-videoTestVideo_video8239-shot1_4/img151.jpg,Images/MSR-VTT-videoTestVideo_video8239-shot1_4/img152.jpg,Images/MSR-VTT-videoTestVideo_video8239-shot1_4/img153.jpg,Images/MSR-VTT-videoTestVideo_video8239-shot1_4/img154.jpg,Images/MSR-VTT-videoTestVideo_video8239-shot1_4/img157.jpg,Images/MSR-VTT-videoTestVideo_video8239-shot1_4/img160.jpg,719,13,0,2022-06-17_10h27.39.700,annotation,2021.2.3,Win32,59.99520038,,
,,,,,,,,,,,,,,,,,0.462962963,-0.164814843,1,0,0,16.1438,image_9,0,32,32,35,1,1356,A group of people sitting at a table in front of a crowd of people.,M,0,5,video-storytelling-videowedding_Bp8t824h5NE-shot44_0,Images/video-storytelling-videowedding_Bp8t824h5NE-shot44_0/img0.jpg,Images/video-storytelling-videowedding_Bp8t824h5NE-shot44_0/img4.jpg,Images/video-storytelling-videowedding_Bp8t824h5NE-shot44_0/img22.jpg,Images/video-storytelling-videowedding_Bp8t824h5NE-shot44_0/img48.jpg,Images/video-storytelling-videowedding_Bp8t824h5NE-shot44_0/img62.jpg,Images/video-storytelling-videowedding_Bp8t824h5NE-shot44_0/img65.jpg,Images/video-storytelling-videowedding_Bp8t824h5NE-shot44_0/img73.jpg,Images/video-storytelling-videowedding_Bp8t824h5NE-shot44_0/img83.jpg,Images/video-storytelling-videowedding_Bp8t824h5NE-shot44_0/img99.jpg,Images/video-storytelling-videowedding_Bp8t824h5NE-shot44_0/img120.jpg,218,13,0,2022-06-17_10h27.39.700,annotation,2021.2.3,Win32,59.99520038,,
,,,,,,,,,,,,,,,,,0.467592593,0.162962949,1,0,0,16.6281,image_4,0,33,33,4,1,914,The spoon is on the left hand side of the picture and is maybe 1/4 submerged. ,H,0,4,MSR-VTT-videoTestVideo_video7038-shot6_0,Images/MSR-VTT-videoTestVideo_video7038-shot6_0/img0.jpg,Images/MSR-VTT-videoTestVideo_video7038-shot6_0/img2.jpg,Images/MSR-VTT-videoTestVideo_video7038-shot6_0/img15.jpg,Images/MSR-VTT-videoTestVideo_video7038-shot6_0/img41.jpg,Images/MSR-VTT-videoTestVideo_video7038-shot6_0/img52.jpg,Images/MSR-VTT-videoTestVideo_video7038-shot6_0/img55.jpg,Images/MSR-VTT-videoTestVideo_video7038-shot6_0/img58.jpg,Images/MSR-VTT-videoTestVideo_video7038-shot6_0/img62.jpg,Images/MSR-VTT-videoTestVideo_video7038-shot6_0/img63.jpg,Images/MSR-VTT-videoTestVideo_video7038-shot6_0/img80.jpg,436,13,0,2022-06-17_10h27.39.700,annotation,2021.2.3,Win32,59.99520038,,
,,,,,,,,,,,,,,,,,0.521296325,-0.121296282,1,0,0,6.8022,image_9,0,34,34,45,1,1876,A woman standing next to a tree with a white shirt.,M,0,8,MSR-VTT-videoTestVideo_video7954-shot1_1,Images/MSR-VTT-videoTestVideo_video7954-shot1_1/img183.jpg,Images/MSR-VTT-videoTestVideo_video7954-shot1_1/img213.jpg,Images/MSR-VTT-videoTestVideo_video7954-shot1_1/img228.jpg,Images/MSR-VTT-videoTestVideo_video7954-shot1_1/img255.jpg,Images/MSR-VTT-videoTestVideo_video7954-shot1_1/img293.jpg,Images/MSR-VTT-videoTestVideo_video7954-shot1_1/img303.jpg,Images/MSR-VTT-videoTestVideo_video7954-shot1_1/img348.jpg,Images/MSR-VTT-videoTestVideo_video7954-shot1_1/img377.jpg,Images/MSR-VTT-videoTestVideo_video7954-shot1_1/img382.jpg,Images/MSR-VTT-videoTestVideo_video7954-shot1_1/img385.jpg,1413,13,0,2022-06-17_10h27.39.700,annotation,2021.2.3,Win32,59.99520038,,
,,,,,,,,,,,,,,,,,-0.24537037,0.1175926,1,0,0,2.3821,image_1,0,35,35,62,1,4,A penguin holding a piece of paper with text on it. ,H,,1,open-images-2521_074d6af730ed17a6,Checks/check5/open-images-509_4d8bd994cb8c6eaeimg0.jpg,Checks/check5/open-images-2521_074d6af730ed17a6img1.jpg,Checks/check5/open-images-1365_a00a5fde334ae45aimg4.jpg,Checks/check5/open-images-1602_44092afdeab39e73img6.jpg,Checks/check5/open-images-1032_059f3cdfb85ee0ceimg3.jpg,Checks/check5/open-images-727_25b77fff36adba66img2.jpg,Checks/check5/open-images-2208_0fb92b9978d98575img2.jpg,Checks/check5/open-images-1305_05769e6abb16fdc8img9.jpg,Checks/check5/open-images-2676_052dbf7b4899430bimg1.jpg,Checks/check5/open-images-2569_1e81d79bb796a2dbimg7.jpg,,,1,2022-06-17_10h27.39.700,annotation,2021.2.3,Win32,59.99520038,,
,,,,,,,,,,,,,,,,,0.4898149,0.12037037,1,0,0,14.7388,image_4,0,36,36,26,1,1829,A man standing in front of a crowd of people.,M,0,6,MSR-VTT-videoTestVideo_video9875-shot6_0,Images/MSR-VTT-videoTestVideo_video9875-shot6_0/img0.jpg,Images/MSR-VTT-videoTestVideo_video9875-shot6_0/img4.jpg,Images/MSR-VTT-videoTestVideo_video9875-shot6_0/img9.jpg,Images/MSR-VTT-videoTestVideo_video9875-shot6_0/img11.jpg,Images/MSR-VTT-videoTestVideo_video9875-shot6_0/img16.jpg,Images/MSR-VTT-videoTestVideo_video9875-shot6_0/img26.jpg,Images/MSR-VTT-videoTestVideo_video9875-shot6_0/img32.jpg,Images/MSR-VTT-videoTestVideo_video9875-shot6_0/img40.jpg,Images/MSR-VTT-videoTestVideo_video9875-shot6_0/img44.jpg,Images/MSR-VTT-videoTestVideo_video9875-shot6_0/img57.jpg,1814,13,0,2022-06-17_10h27.39.700,annotation,2021.2.3,Win32,59.99520038,,
,,,,,,,,,,,,,,,,,-0.259259259,-0.164814843,1,0,0,9.5382,image_6,0,37,37,43,1,254,"Red tong is blurred and directly in the center, pointing down.",H,0,6,YouCook-video0023-shot1_3,Images/YouCook-video0023-shot1_3/img564.jpg,Images/YouCook-video0023-shot1_3/img654.jpg,Images/YouCook-video0023-shot1_3/img726.jpg,Images/YouCook-video0023-shot1_3/img752.jpg,Images/YouCook-video0023-shot1_3/img753.jpg,Images/YouCook-video0023-shot1_3/img755.jpg,Images/YouCook-video0023-shot1_3/img759.jpg,Images/YouCook-video0023-shot1_3/img764.jpg,Images/YouCook-video0023-shot1_3/img768.jpg,Images/YouCook-video0023-shot1_3/img772.jpg,1432,13,0,2022-06-17_10h27.39.700,annotation,2021.2.3,Win32,59.99520038,,
,,,,,,,,,,,,,,,,,0.511111083,-0.154629672,1,0,0,3.2364,image_9,0,38,38,60,1,2,Green type writer with a red tape. ,H,,9,open-images-531_0dd4eb59d465a8be,Checks/check3/open-images-503_1ccd6fa641154ebbimg7.jpg,Checks/check3/open-images-1852_00faf52058ad28b8img4.jpg,Checks/check3/open-images-386_1b2e28d6d994603eimg1.jpg,Checks/check3/open-images-471_1121e9f97c200ac0img8.jpg,Checks/check3/open-images-1886_3db71eaddb618934img8.jpg,Checks/check3/open-images-1696_20a4ebf0c0f76b05img6.jpg,Checks/check3/open-images-2447_128483a48e1552f4img6.jpg,Checks/check3/open-images-2994_9965cbf8aa20bda0img2.jpg,Checks/check3/open-images-1068_03d63613107970b3img6.jpg,Checks/check3/open-images-531_0dd4eb59d465a8beimg9.jpg,,,1,2022-06-17_10h27.39.700,annotation,2021.2.3,Win32,59.99520038,,
,,,,,,,,,,,,,,,,,-0.466666645,0.162962949,1,0,0,6.6742,image_0,0,39,39,31,1,1094,A person cutting a bowl with scissors.,M,0,5,YouCook-video0063-shot17_1,Images/YouCook-video0063-shot17_1/img90.jpg,Images/YouCook-video0063-shot17_1/img97.jpg,Images/YouCook-video0063-shot17_1/img110.jpg,Images/YouCook-video0063-shot17_1/img112.jpg,Images/YouCook-video0063-shot17_1/img117.jpg,Images/YouCook-video0063-shot17_1/img125.jpg,Images/YouCook-video0063-shot17_1/img126.jpg,Images/YouCook-video0063-shot17_1/img132.jpg,Images/YouCook-video0063-shot17_1/img144.jpg,Images/YouCook-video0063-shot17_1/img146.jpg,1706,13,0,2022-06-17_10h27.39.700,annotation,2021.2.3,Win32,59.99520038,,
,,,,,,,,,,,,,,,,,-0.237962935,-0.184259273,1,0,0,11.1915,image_6,0,40,40,19,1,656,The man's right ear is barely visible on the left hand side of the image.  The woman has her mouth open and you can see her top teeth. ,H,0,6,MSR-VTT-videoTestVideo_video9569-shot1_1,Images/MSR-VTT-videoTestVideo_video9569-shot1_1/img74.jpg,Images/MSR-VTT-videoTestVideo_video9569-shot1_1/img83.jpg,Images/MSR-VTT-videoTestVideo_video9569-shot1_1/img89.jpg,Images/MSR-VTT-videoTestVideo_video9569-shot1_1/img106.jpg,Images/MSR-VTT-videoTestVideo_video9569-shot1_1/img109.jpg,Images/MSR-VTT-videoTestVideo_video9569-shot1_1/img116.jpg,Images/MSR-VTT-videoTestVideo_video9569-shot1_1/img124.jpg,Images/MSR-VTT-videoTestVideo_video9569-shot1_1/img160.jpg,Images/MSR-VTT-videoTestVideo_video9569-shot1_1/img170.jpg,Images/MSR-VTT-videoTestVideo_video9569-shot1_1/img186.jpg,953,13,0,2022-06-17_10h27.39.700,annotation,2021.2.3,Win32,59.99520038,,
,,,,,,,,,,,,,,,,,-0.437037044,-0.219444487,1,0,0,19.3393,image_5,0,41,41,11,1,854,The girl has her right hand up in her hair and her other hand is pointed towards the poster on the wall slightly above waist level. ,H,0,5,video-storytelling-videobirthday__amwPjAcoC8-shot73_6,Images/video-storytelling-videobirthday__amwPjAcoC8-shot73_6/img243.jpg,Images/video-storytelling-videobirthday__amwPjAcoC8-shot73_6/img244.jpg,Images/video-storytelling-videobirthday__amwPjAcoC8-shot73_6/img247.jpg,Images/video-storytelling-videobirthday__amwPjAcoC8-shot73_6/img249.jpg,Images/video-storytelling-videobirthday__amwPjAcoC8-shot73_6/img252.jpg,Images/video-storytelling-videobirthday__amwPjAcoC8-shot73_6/img266.jpg,Images/video-storytelling-videobirthday__amwPjAcoC8-shot73_6/img288.jpg,Images/video-storytelling-videobirthday__amwPjAcoC8-shot73_6/img293.jpg,Images/video-storytelling-videobirthday__amwPjAcoC8-shot73_6/img294.jpg,Images/video-storytelling-videobirthday__amwPjAcoC8-shot73_6/img296.jpg,2078,13,0,2022-06-17_10h27.39.700,annotation,2021.2.3,Win32,59.99520038,,
,,,,,,,,,,,,,,,,,-0.505555541,-0.12962963,1,0,0,9.2315,image_5,0,42,42,53,1,443,"The cartoon pirate is at the top right corner, his entire body can be seen.",H,0,5,MSR-VTT-videoTestVideo_video7807-shot2_0,Images/MSR-VTT-videoTestVideo_video7807-shot2_0/img0.jpg,Images/MSR-VTT-videoTestVideo_video7807-shot2_0/img29.jpg,Images/MSR-VTT-videoTestVideo_video7807-shot2_0/img67.jpg,Images/MSR-VTT-videoTestVideo_video7807-shot2_0/img88.jpg,Images/MSR-VTT-videoTestVideo_video7807-shot2_0/img109.jpg,Images/MSR-VTT-videoTestVideo_video7807-shot2_0/img118.jpg,Images/MSR-VTT-videoTestVideo_video7807-shot2_0/img138.jpg,Images/MSR-VTT-videoTestVideo_video7807-shot2_0/img151.jpg,Images/MSR-VTT-videoTestVideo_video7807-shot2_0/img199.jpg,Images/MSR-VTT-videoTestVideo_video7807-shot2_0/img209.jpg,733,13,0,2022-06-17_10h27.39.700,annotation,2021.2.3,Win32,59.99520038,,
,,,,,,,,,,,,,,,,,0.499074159,0.133333312,1,0,0,9.5822,image_4,0,43,43,29,1,806,A camera flash to the left of the man in white trunks makes an x on the picture,H,0,4,MSR-VTT-videoTestVideo_video8310-shot1_5,Images/MSR-VTT-videoTestVideo_video8310-shot1_5/img323.jpg,Images/MSR-VTT-videoTestVideo_video8310-shot1_5/img328.jpg,Images/MSR-VTT-videoTestVideo_video8310-shot1_5/img334.jpg,Images/MSR-VTT-videoTestVideo_video8310-shot1_5/img338.jpg,Images/MSR-VTT-videoTestVideo_video8310-shot1_5/img342.jpg,Images/MSR-VTT-videoTestVideo_video8310-shot1_5/img343.jpg,Images/MSR-VTT-videoTestVideo_video8310-shot1_5/img349.jpg,Images/MSR-VTT-videoTestVideo_video8310-shot1_5/img354.jpg,Images/MSR-VTT-videoTestVideo_video8310-shot1_5/img359.jpg,Images/MSR-VTT-videoTestVideo_video8310-shot1_5/img362.jpg,1872,13,0,2022-06-17_10h27.39.700,annotation,2021.2.3,Win32,59.99520038,,
,,,,,,,,,,,,,,,,,-0.002777735,0.093518504,1,0,0,8.5833,image_2,0,44,44,13,1,364,The girl is holding the paper and briefcase with only her chin showing. You can't see her glasses.,H,0,2,MSR-VTT-videoTestVideo_video7335-shot1_2,Images/MSR-VTT-videoTestVideo_video7335-shot1_2/img119.jpg,Images/MSR-VTT-videoTestVideo_video7335-shot1_2/img124.jpg,Images/MSR-VTT-videoTestVideo_video7335-shot1_2/img135.jpg,Images/MSR-VTT-videoTestVideo_video7335-shot1_2/img143.jpg,Images/MSR-VTT-videoTestVideo_video7335-shot1_2/img147.jpg,Images/MSR-VTT-videoTestVideo_video7335-shot1_2/img150.jpg,Images/MSR-VTT-videoTestVideo_video7335-shot1_2/img157.jpg,Images/MSR-VTT-videoTestVideo_video7335-shot1_2/img161.jpg,Images/MSR-VTT-videoTestVideo_video7335-shot1_2/img163.jpg,Images/MSR-VTT-videoTestVideo_video7335-shot1_2/img168.jpg,1042,13,0,2022-06-17_10h27.39.700,annotation,2021.2.3,Win32,59.99520038,,
,,,,,,,,,,,,,,,,,-0.436111097,-0.170370384,1,0,0,38.5504,image_5,0,45,45,27,1,2001,A couple of people walking down a street next to a fire hydrant.,M,0,1,MSR-VTT-videoTestVideo_video7689-shot1_0,Images/MSR-VTT-videoTestVideo_video7689-shot1_0/img0.jpg,Images/MSR-VTT-videoTestVideo_video7689-shot1_0/img5.jpg,Images/MSR-VTT-videoTestVideo_video7689-shot1_0/img6.jpg,Images/MSR-VTT-videoTestVideo_video7689-shot1_0/img7.jpg,Images/MSR-VTT-videoTestVideo_video7689-shot1_0/img8.jpg,Images/MSR-VTT-videoTestVideo_video7689-shot1_0/img11.jpg,Images/MSR-VTT-videoTestVideo_video7689-shot1_0/img18.jpg,Images/MSR-VTT-videoTestVideo_video7689-shot1_0/img39.jpg,Images/MSR-VTT-videoTestVideo_video7689-shot1_0/img42.jpg,Images/MSR-VTT-videoTestVideo_video7689-shot1_0/img52.jpg,1802,13,0,2022-06-17_10h27.39.700,annotation,2021.2.3,Win32,59.99520038,,
,,,,,,,,,,,,,,,,,-0.232407393,0.086111104,1,0,0,13.4463,image_1,0,46,46,47,1,584,"A blurry couple, one with a pink hat, is dancing very close. You can see the girl's face in profile.",H,0,1,MSR-VTT-videoTestVideo_video7041-shot0_3,Images/MSR-VTT-videoTestVideo_video7041-shot0_3/img59.jpg,Images/MSR-VTT-videoTestVideo_video7041-shot0_3/img60.jpg,Images/MSR-VTT-videoTestVideo_video7041-shot0_3/img63.jpg,Images/MSR-VTT-videoTestVideo_video7041-shot0_3/img66.jpg,Images/MSR-VTT-videoTestVideo_video7041-shot0_3/img68.jpg,Images/MSR-VTT-videoTestVideo_video7041-shot0_3/img72.jpg,Images/MSR-VTT-videoTestVideo_video7041-shot0_3/img75.jpg,Images/MSR-VTT-videoTestVideo_video7041-shot0_3/img78.jpg,Images/MSR-VTT-videoTestVideo_video7041-shot0_3/img83.jpg,Images/MSR-VTT-videoTestVideo_video7041-shot0_3/img84.jpg,1356,13,0,2022-06-17_10h27.39.700,annotation,2021.2.3,Win32,59.99520038,,
,,,,,,,,,,,,,,,,,-0.423148155,0.087037016,1,0,0,18.5889,image_0,0,47,47,18,1,1616,A woman and a man standing next to each other in front of a wedding cake.,M,0,2,video-storytelling-videowedding_Bp8t824h5NE-shot59_1,Images/video-storytelling-videowedding_Bp8t824h5NE-shot59_1/img2110.jpg,Images/video-storytelling-videowedding_Bp8t824h5NE-shot59_1/img2195.jpg,Images/video-storytelling-videowedding_Bp8t824h5NE-shot59_1/img2202.jpg,Images/video-storytelling-videowedding_Bp8t824h5NE-shot59_1/img2207.jpg,Images/video-storytelling-videowedding_Bp8t824h5NE-shot59_1/img2214.jpg,Images/video-storytelling-videowedding_Bp8t824h5NE-shot59_1/img2222.jpg,Images/video-storytelling-videowedding_Bp8t824h5NE-shot59_1/img2258.jpg,Images/video-storytelling-videowedding_Bp8t824h5NE-shot59_1/img2270.jpg,Images/video-storytelling-videowedding_Bp8t824h5NE-shot59_1/img2285.jpg,Images/video-storytelling-videowedding_Bp8t824h5NE-shot59_1/img2365.jpg,967,13,0,2022-06-17_10h27.39.700,annotation,2021.2.3,Win32,59.99520038,,
,,,,,,,,,,,,,,,,,-0.222222222,0.074999986,1,0,0,12.3816,image_1,0,48,48,1,1,1388,A man standing in front of a crowd of people.,M,0,2,video-storytelling-videowedding_Bp8t824h5NE-shot58_1,Images/video-storytelling-videowedding_Bp8t824h5NE-shot58_1/img27.jpg,Images/video-storytelling-videowedding_Bp8t824h5NE-shot58_1/img33.jpg,Images/video-storytelling-videowedding_Bp8t824h5NE-shot58_1/img45.jpg,Images/video-storytelling-videowedding_Bp8t824h5NE-shot58_1/img56.jpg,Images/video-storytelling-videowedding_Bp8t824h5NE-shot58_1/img58.jpg,Images/video-storytelling-videowedding_Bp8t824h5NE-shot58_1/img59.jpg,Images/video-storytelling-videowedding_Bp8t824h5NE-shot58_1/img62.jpg,Images/video-storytelling-videowedding_Bp8t824h5NE-shot58_1/img63.jpg,Images/video-storytelling-videowedding_Bp8t824h5NE-shot58_1/img65.jpg,Images/video-storytelling-videowedding_Bp8t824h5NE-shot58_1/img67.jpg,1219,13,0,2022-06-17_10h27.39.700,annotation,2021.2.3,Win32,59.99520038,,
,,,,,,,,,,,,,,,,,0.516666695,0.135185171,1,0,0,9.7443,image_4,0,49,49,23,1,480,The male student in the black sweater had his head down and writing. There is no image overlay.,H,1,4,MSR-VTT-videoTestVideo_video9228-shot4_1,Images/MSR-VTT-videoTestVideo_video9228-shot4_1/img102.jpg,Images/MSR-VTT-videoTestVideo_video9228-shot4_1/img128.jpg,Images/MSR-VTT-videoTestVideo_video9228-shot4_1/img134.jpg,Images/MSR-VTT-videoTestVideo_video9228-shot4_1/img147.jpg,Images/MSR-VTT-videoTestVideo_video9228-shot4_1/img172.jpg,Images/MSR-VTT-videoTestVideo_video9228-shot4_1/img246.jpg,Images/MSR-VTT-videoTestVideo_video9228-shot4_1/img252.jpg,Images/MSR-VTT-videoTestVideo_video9228-shot4_1/img257.jpg,Images/MSR-VTT-videoTestVideo_video9228-shot4_1/img262.jpg,Images/MSR-VTT-videoTestVideo_video9228-shot4_1/img269.jpg,488,13,0,2022-06-17_10h27.39.700,annotation,2021.2.3,Win32,59.99520038,,
,,,,,,,,,,,,,,,,,0.5,0.125925912,1,0,0,9.1239,image_4,0,50,50,55,1,13,Two people standing side by side fishing.  The man on the left has jerked his whole body around so that you can now see text on his shirt. ,H,0,2,MSR-VTT-videoTestVideo_video7816-shot0_0,Images/MSR-VTT-videoTestVideo_video7816-shot0_0/img0.jpg,Images/MSR-VTT-videoTestVideo_video7816-shot0_0/img7.jpg,Images/MSR-VTT-videoTestVideo_video7816-shot0_0/img13.jpg,Images/MSR-VTT-videoTestVideo_video7816-shot0_0/img15.jpg,Images/MSR-VTT-videoTestVideo_video7816-shot0_0/img21.jpg,Images/MSR-VTT-videoTestVideo_video7816-shot0_0/img26.jpg,Images/MSR-VTT-videoTestVideo_video7816-shot0_0/img33.jpg,Images/MSR-VTT-videoTestVideo_video7816-shot0_0/img36.jpg,Images/MSR-VTT-videoTestVideo_video7816-shot0_0/img37.jpg,Images/MSR-VTT-videoTestVideo_video7816-shot0_0/img39.jpg,730,13,0,2022-06-17_10h27.39.700,annotation,2021.2.3,Win32,59.99520038,,
,,,,,,,,,,,,,,,,,0.337037122,-0.237963005,1,0,0,24.7551,image_8,0,51,51,37,1,194,"In the bottom right corner, a person in red is hugging a person in gray.  The person in blue is not visible.",H,0,8,MSR-VTT-videoTestVideo_video8476-shot1_4,Images/MSR-VTT-videoTestVideo_video8476-shot1_4/img162.jpg,Images/MSR-VTT-videoTestVideo_video8476-shot1_4/img166.jpg,Images/MSR-VTT-videoTestVideo_video8476-shot1_4/img167.jpg,Images/MSR-VTT-videoTestVideo_video8476-shot1_4/img168.jpg,Images/MSR-VTT-videoTestVideo_video8476-shot1_4/img170.jpg,Images/MSR-VTT-videoTestVideo_video8476-shot1_4/img172.jpg,Images/MSR-VTT-videoTestVideo_video8476-shot1_4/img174.jpg,Images/MSR-VTT-videoTestVideo_video8476-shot1_4/img175.jpg,Images/MSR-VTT-videoTestVideo_video8476-shot1_4/img178.jpg,Images/MSR-VTT-videoTestVideo_video8476-shot1_4/img180.jpg,1851,13,0,2022-06-17_10h27.39.700,annotation,2021.2.3,Win32,59.99520038,,
,,,,,,,,,,,,,,,,,-0.452777757,0.062037044,1,0,0,11.3298,image_0,0,52,52,22,1,1498,A person standing in front of a stage.,M,0,2,MSR-VTT-videoTestVideo_video7663-shot3_0,Images/MSR-VTT-videoTestVideo_video7663-shot3_0/img0.jpg,Images/MSR-VTT-videoTestVideo_video7663-shot3_0/img12.jpg,Images/MSR-VTT-videoTestVideo_video7663-shot3_0/img22.jpg,Images/MSR-VTT-videoTestVideo_video7663-shot3_0/img23.jpg,Images/MSR-VTT-videoTestVideo_video7663-shot3_0/img25.jpg,Images/MSR-VTT-videoTestVideo_video7663-shot3_0/img29.jpg,Images/MSR-VTT-videoTestVideo_video7663-shot3_0/img32.jpg,Images/MSR-VTT-videoTestVideo_video7663-shot3_0/img35.jpg,Images/MSR-VTT-videoTestVideo_video7663-shot3_0/img37.jpg,Images/MSR-VTT-videoTestVideo_video7663-shot3_0/img40.jpg,1069,13,0,2022-06-17_10h27.39.700,annotation,2021.2.3,Win32,59.99520038,,
,,,,,,,,,,,,,,,,,-0.175925926,-0.187037079,1,0,0,20.1419,image_6,0,53,53,52,1,767,The ball is in the air and is above and to the left of the clock on top of the backboard.  There is no blur in the ball,H,0,6,MSR-VTT-videoTestVideo_video8013-shot1_0,Images/MSR-VTT-videoTestVideo_video8013-shot1_0/img0.jpg,Images/MSR-VTT-videoTestVideo_video8013-shot1_0/img1.jpg,Images/MSR-VTT-videoTestVideo_video8013-shot1_0/img10.jpg,Images/MSR-VTT-videoTestVideo_video8013-shot1_0/img12.jpg,Images/MSR-VTT-videoTestVideo_video8013-shot1_0/img18.jpg,Images/MSR-VTT-videoTestVideo_video8013-shot1_0/img20.jpg,Images/MSR-VTT-videoTestVideo_video8013-shot1_0/img24.jpg,Images/MSR-VTT-videoTestVideo_video8013-shot1_0/img25.jpg,Images/MSR-VTT-videoTestVideo_video8013-shot1_0/img30.jpg,Images/MSR-VTT-videoTestVideo_video8013-shot1_0/img31.jpg,1044,13,0,2022-06-17_10h27.39.700,annotation,2021.2.3,Win32,59.99520038,,
,,,,,,,,,,,,,,,,,-0.229629587,0.107407393,1,0,0,11.1748,image_1,0,54,54,16,1,108,All three women are visible though the one on the left is only half a face.,H,1,1,MSR-VTT-videoTestVideo_video9969-shot1_0,Images/MSR-VTT-videoTestVideo_video9969-shot1_0/img0.jpg,Images/MSR-VTT-videoTestVideo_video9969-shot1_0/img1.jpg,Images/MSR-VTT-videoTestVideo_video9969-shot1_0/img2.jpg,Images/MSR-VTT-videoTestVideo_video9969-shot1_0/img4.jpg,Images/MSR-VTT-videoTestVideo_video9969-shot1_0/img5.jpg,Images/MSR-VTT-videoTestVideo_video9969-shot1_0/img18.jpg,Images/MSR-VTT-videoTestVideo_video9969-shot1_0/img41.jpg,Images/MSR-VTT-videoTestVideo_video9969-shot1_0/img60.jpg,Images/MSR-VTT-videoTestVideo_video9969-shot1_0/img108.jpg,Images/MSR-VTT-videoTestVideo_video9969-shot1_0/img146.jpg,998,13,0,2022-06-17_10h27.39.700,annotation,2021.2.3,Win32,59.99520038,,
,,,,,,,,,,,,,,,,,-0.505555541,0.074999986,1,0,0,15.296,image_0,0,55,55,17,1,1774,A person cutting up a piece of food on a cutting board.,M,1,5,YouCook-video0035-shot5_1,Images/YouCook-video0035-shot5_1/img74.jpg,Images/YouCook-video0035-shot5_1/img86.jpg,Images/YouCook-video0035-shot5_1/img95.jpg,Images/YouCook-video0035-shot5_1/img98.jpg,Images/YouCook-video0035-shot5_1/img99.jpg,Images/YouCook-video0035-shot5_1/img147.jpg,Images/YouCook-video0035-shot5_1/img155.jpg,Images/YouCook-video0035-shot5_1/img156.jpg,Images/YouCook-video0035-shot5_1/img164.jpg,Images/YouCook-video0035-shot5_1/img167.jpg,968,13,0,2022-06-17_10h27.39.700,annotation,2021.2.3,Win32,59.99520038,,
,,,,,,,,,,,,,,,,,0.304629714,-0.174074102,1,0,0,14.3976,image_8,0,56,56,33,1,230,The text at the bottom of the image is found between the pink dress of the person. Neither end of the text is covering anything but the pink dress.,H,1,8,MSR-VTT-videoTestVideo_video8237-shot1_4,Images/MSR-VTT-videoTestVideo_video8237-shot1_4/img135.jpg,Images/MSR-VTT-videoTestVideo_video8237-shot1_4/img137.jpg,Images/MSR-VTT-videoTestVideo_video8237-shot1_4/img140.jpg,Images/MSR-VTT-videoTestVideo_video8237-shot1_4/img143.jpg,Images/MSR-VTT-videoTestVideo_video8237-shot1_4/img145.jpg,Images/MSR-VTT-videoTestVideo_video8237-shot1_4/img149.jpg,Images/MSR-VTT-videoTestVideo_video8237-shot1_4/img152.jpg,Images/MSR-VTT-videoTestVideo_video8237-shot1_4/img155.jpg,Images/MSR-VTT-videoTestVideo_video8237-shot1_4/img156.jpg,Images/MSR-VTT-videoTestVideo_video8237-shot1_4/img160.jpg,1671,13,0,2022-06-17_10h27.39.700,annotation,2021.2.3,Win32,59.99520038,,
,,,,,,,,,,,,,,,,,0.22129631,-0.196296339,1,0,0,12.3643,image_8,0,57,57,50,1,623,The singer has just brought the microphone up to his mouth and has just started singing. ,H,0,5,MSR-VTT-videoTestVideo_video8755-shot1_0,Images/MSR-VTT-videoTestVideo_video8755-shot1_0/img0.jpg,Images/MSR-VTT-videoTestVideo_video8755-shot1_0/img3.jpg,Images/MSR-VTT-videoTestVideo_video8755-shot1_0/img6.jpg,Images/MSR-VTT-videoTestVideo_video8755-shot1_0/img12.jpg,Images/MSR-VTT-videoTestVideo_video8755-shot1_0/img13.jpg,Images/MSR-VTT-videoTestVideo_video8755-shot1_0/img18.jpg,Images/MSR-VTT-videoTestVideo_video8755-shot1_0/img19.jpg,Images/MSR-VTT-videoTestVideo_video8755-shot1_0/img23.jpg,Images/MSR-VTT-videoTestVideo_video8755-shot1_0/img33.jpg,Images/MSR-VTT-videoTestVideo_video8755-shot1_0/img45.jpg,1541,13,0,2022-06-17_10h27.39.700,annotation,2021.2.3,Win32,59.99520038,,
,,,,,,,,,,,,,,,,,0.257407436,0.121296282,1,0,0,11.3144,image_3,0,58,58,49,1,118,The paddle is mostly covered with orange batter. It is lifted up from the batter with some of the batter stretching from the paddle into the main batter. The paddle is closer to the left side of the bowl.,H,0,3,MSR-VTT-videoTestVideo_video8654-shot1_0,Images/MSR-VTT-videoTestVideo_video8654-shot1_0/img0.jpg,Images/MSR-VTT-videoTestVideo_video8654-shot1_0/img5.jpg,Images/MSR-VTT-videoTestVideo_video8654-shot1_0/img51.jpg,Images/MSR-VTT-videoTestVideo_video8654-shot1_0/img60.jpg,Images/MSR-VTT-videoTestVideo_video8654-shot1_0/img64.jpg,Images/MSR-VTT-videoTestVideo_video8654-shot1_0/img75.jpg,Images/MSR-VTT-videoTestVideo_video8654-shot1_0/img76.jpg,Images/MSR-VTT-videoTestVideo_video8654-shot1_0/img79.jpg,Images/MSR-VTT-videoTestVideo_video8654-shot1_0/img83.jpg,Images/MSR-VTT-videoTestVideo_video8654-shot1_0/img87.jpg,368,13,0,2022-06-17_10h27.39.700,annotation,2021.2.3,Win32,59.99520038,,
,,,,,,,,,,,,,,,,,0.213888875,0.097222222,1,0,0,8.7043,image_3,0,59,59,56,1,540,The green hat on the boy is just starting to cover up the red hat of the dog in the box. ,H,0,3,video-storytelling-videobirthday__amwPjAcoC8-shot34_1,Images/video-storytelling-videobirthday__amwPjAcoC8-shot34_1/img41.jpg,Images/video-storytelling-videobirthday__amwPjAcoC8-shot34_1/img47.jpg,Images/video-storytelling-videobirthday__amwPjAcoC8-shot34_1/img51.jpg,Images/video-storytelling-videobirthday__amwPjAcoC8-shot34_1/img56.jpg,Images/video-storytelling-videobirthday__amwPjAcoC8-shot34_1/img65.jpg,Images/video-storytelling-videobirthday__amwPjAcoC8-shot34_1/img70.jpg,Images/video-storytelling-videobirthday__amwPjAcoC8-shot34_1/img72.jpg,Images/video-storytelling-videobirthday__amwPjAcoC8-shot34_1/img80.jpg,Images/video-storytelling-videobirthday__amwPjAcoC8-shot34_1/img82.jpg,Images/video-storytelling-videobirthday__amwPjAcoC8-shot34_1/img87.jpg,675,13,0,2022-06-17_10h27.39.700,annotation,2021.2.3,Win32,59.99520038,,
,,,,,,,,,,,,,,,,,-0.427777785,-0.141666695,1,0,0,19.3267,image_5,0,60,60,20,1,1856,A man and a woman standing next to each other on a wedding cake.,M,0,8,video-storytelling-videowedding_Bp8t824h5NE-shot65_0,Images/video-storytelling-videowedding_Bp8t824h5NE-shot65_0/img0.jpg,Images/video-storytelling-videowedding_Bp8t824h5NE-shot65_0/img6.jpg,Images/video-storytelling-videowedding_Bp8t824h5NE-shot65_0/img48.jpg,Images/video-storytelling-videowedding_Bp8t824h5NE-shot65_0/img106.jpg,Images/video-storytelling-videowedding_Bp8t824h5NE-shot65_0/img250.jpg,Images/video-storytelling-videowedding_Bp8t824h5NE-shot65_0/img350.jpg,Images/video-storytelling-videowedding_Bp8t824h5NE-shot65_0/img425.jpg,Images/video-storytelling-videowedding_Bp8t824h5NE-shot65_0/img434.jpg,Images/video-storytelling-videowedding_Bp8t824h5NE-shot65_0/img484.jpg,Images/video-storytelling-videowedding_Bp8t824h5NE-shot65_0/img506.jpg,579,13,0,2022-06-17_10h27.39.700,annotation,2021.2.3,Win32,59.99520038,,
,,,,,,,,,,,,,,,,,0.260185171,0.086111104,1,0,0,13.8999,image_3,0,61,61,3,1,995,The dog mascot's right eye is barely visible but it's nose is hidden. ,H,0,3,video-storytelling-videobirthday__amwPjAcoC8-shot68_6,Images/video-storytelling-videobirthday__amwPjAcoC8-shot68_6/img174.jpg,Images/video-storytelling-videobirthday__amwPjAcoC8-shot68_6/img176.jpg,Images/video-storytelling-videobirthday__amwPjAcoC8-shot68_6/img178.jpg,Images/video-storytelling-videobirthday__amwPjAcoC8-shot68_6/img181.jpg,Images/video-storytelling-videobirthday__amwPjAcoC8-shot68_6/img185.jpg,Images/video-storytelling-videobirthday__amwPjAcoC8-shot68_6/img188.jpg,Images/video-storytelling-videobirthday__amwPjAcoC8-shot68_6/img190.jpg,Images/video-storytelling-videobirthday__amwPjAcoC8-shot68_6/img193.jpg,Images/video-storytelling-videobirthday__amwPjAcoC8-shot68_6/img197.jpg,Images/video-storytelling-videobirthday__amwPjAcoC8-shot68_6/img201.jpg,1998,13,0,2022-06-17_10h27.39.700,annotation,2021.2.3,Win32,59.99520038,,
,,,,,,,,,,,,,,,,,-0.023148148,0.170370349,1,0,0,1.7101,image_2,0,62,62,58,1,0,Pair of black gloves,H,,2,open-images-510_3a241cb30d6e5319,Checks/check1/open-images-225_1442c0d0ef23d58bimg3.jpg,Checks/check1/open-images-2759_3a42708fe77398b7img8.jpg,Checks/check1/open-images-510_3a241cb30d6e5319img2.jpg,Checks/check1/open-images-2209_02c98146fb93ff17img1.jpg,Checks/check1/open-images-1553_0f128317e56a9d2fimg9.jpg,Checks/check1/open-images-2666_044d7c6d11e6b493img8.jpg,Checks/check1/open-images-2880_159294646083f545img4.jpg,Checks/check1/open-images-609_2dc0baa993a2bd25img5.jpg,Checks/check1/open-images-1854_2b15616b4f1080e7img2.jpg,Checks/check1/open-images-1435_1b0ce31951048765img8.jpg,,,1,2022-06-17_10h27.39.700,annotation,2021.2.3,Win32,59.99520038,,
,,,,,,,,,,,,,,,,,,,,,,,,,,,,,,,,,,,,,,,,,,,,,,,,2022-06-17_10h27.39.700,annotation,2021.2.3,Win32,59.99520038,space,19.4845
