mturk,key_resp_2.keys,key_resp_2.rt,key_resp_3.keys,key_resp_3.rt,mouse_2.x,mouse_2.y,mouse_2.leftButton,mouse_2.midButton,mouse_2.rightButton,mouse_2.clicked_name,key_resp_5.keys,key_resp_5.rt,key_resp.keys,key_resp.rt,key_resp_6.keys,key_resp_6.rt,mouse.x,mouse.y,mouse.leftButton,mouse.midButton,mouse.rightButton,mouse.clicked_name,trials.thisRepN,trials.thisTrialN,trials.thisN,trials.thisIndex,trials.ran,N,caption,class_caption,model_guessed,target_idx,image_set,img1,img2,img3,img4,img5,img6,img7,img8,img9,img10,Q_id,block,is_check,date,expName,psychopyVersion,OS,frameRate,key_resp_7.keys,key_resp_7.rt
3572630,space,14.573,space,11.333,0.3046875,0.0703125,1,0,0,ex4,space,11.812,space,19.426,space,3.182,-0.234375,0.114583333,1,0,0,image_1,0,0,0,18,1,1681,A group of people sitting at a table.,M,0,7,video-storytelling-videocamping_dBXYM3dQTSo-shot83_3,Images/video-storytelling-videocamping_dBXYM3dQTSo-shot83_3/img202.jpg,Images/video-storytelling-videocamping_dBXYM3dQTSo-shot83_3/img225.jpg,Images/video-storytelling-videocamping_dBXYM3dQTSo-shot83_3/img237.jpg,Images/video-storytelling-videocamping_dBXYM3dQTSo-shot83_3/img242.jpg,Images/video-storytelling-videocamping_dBXYM3dQTSo-shot83_3/img254.jpg,Images/video-storytelling-videocamping_dBXYM3dQTSo-shot83_3/img273.jpg,Images/video-storytelling-videocamping_dBXYM3dQTSo-shot83_3/img311.jpg,Images/video-storytelling-videocamping_dBXYM3dQTSo-shot83_3/img322.jpg,Images/video-storytelling-videocamping_dBXYM3dQTSo-shot83_3/img326.jpg,Images/video-storytelling-videocamping_dBXYM3dQTSo-shot83_3/img351.jpg,1106,32,0,2022-06-16_01h17.25.469,annotation,2021.2.3,Win32,60.0024001,,
,,,,,,,,,,,,,,,,,-0.493489583,-0.166666667,1,0,0,image_5,0,1,1,43,1,1369,A man holding a hair dryer in his hands.,M,0,4,MSR-VTT-videoTestVideo_video7511-shot1_2,Images/MSR-VTT-videoTestVideo_video7511-shot1_2/img56.jpg,Images/MSR-VTT-videoTestVideo_video7511-shot1_2/img57.jpg,Images/MSR-VTT-videoTestVideo_video7511-shot1_2/img60.jpg,Images/MSR-VTT-videoTestVideo_video7511-shot1_2/img62.jpg,Images/MSR-VTT-videoTestVideo_video7511-shot1_2/img63.jpg,Images/MSR-VTT-videoTestVideo_video7511-shot1_2/img64.jpg,Images/MSR-VTT-videoTestVideo_video7511-shot1_2/img66.jpg,Images/MSR-VTT-videoTestVideo_video7511-shot1_2/img67.jpg,Images/MSR-VTT-videoTestVideo_video7511-shot1_2/img72.jpg,Images/MSR-VTT-videoTestVideo_video7511-shot1_2/img73.jpg,267,32,0,2022-06-16_01h17.25.469,annotation,2021.2.3,Win32,60.0024001,,
,,,,,,,,,,,,,,,,,0.287760417,0.098958333,1,0,0,image_3,0,2,2,4,1,572,There is the most blur and you can see a woman with a black and white shirt superimposed on the grooms back. ,H,0,2,video-storytelling-videowedding_Bp8t824h5NE-shot59_1,Images/video-storytelling-videowedding_Bp8t824h5NE-shot59_1/img2110.jpg,Images/video-storytelling-videowedding_Bp8t824h5NE-shot59_1/img2195.jpg,Images/video-storytelling-videowedding_Bp8t824h5NE-shot59_1/img2202.jpg,Images/video-storytelling-videowedding_Bp8t824h5NE-shot59_1/img2207.jpg,Images/video-storytelling-videowedding_Bp8t824h5NE-shot59_1/img2214.jpg,Images/video-storytelling-videowedding_Bp8t824h5NE-shot59_1/img2222.jpg,Images/video-storytelling-videowedding_Bp8t824h5NE-shot59_1/img2258.jpg,Images/video-storytelling-videowedding_Bp8t824h5NE-shot59_1/img2270.jpg,Images/video-storytelling-videowedding_Bp8t824h5NE-shot59_1/img2285.jpg,Images/video-storytelling-videowedding_Bp8t824h5NE-shot59_1/img2365.jpg,936,32,0,2022-06-16_01h17.25.469,annotation,2021.2.3,Win32,60.0024001,,
,,,,,,,,,,,,,,,,,-0.063802083,0.13671875,1,0,0,image_2,0,3,3,50,1,1400,A person is pouring some food into a vase.,M,0,8,MSR-VTT-videoTestVideo_video7434-shot1_1,Images/MSR-VTT-videoTestVideo_video7434-shot1_1/img67.jpg,Images/MSR-VTT-videoTestVideo_video7434-shot1_1/img82.jpg,Images/MSR-VTT-videoTestVideo_video7434-shot1_1/img95.jpg,Images/MSR-VTT-videoTestVideo_video7434-shot1_1/img117.jpg,Images/MSR-VTT-videoTestVideo_video7434-shot1_1/img125.jpg,Images/MSR-VTT-videoTestVideo_video7434-shot1_1/img135.jpg,Images/MSR-VTT-videoTestVideo_video7434-shot1_1/img140.jpg,Images/MSR-VTT-videoTestVideo_video7434-shot1_1/img149.jpg,Images/MSR-VTT-videoTestVideo_video7434-shot1_1/img160.jpg,Images/MSR-VTT-videoTestVideo_video7434-shot1_1/img167.jpg,63,32,0,2022-06-16_01h17.25.469,annotation,2021.2.3,Win32,60.0024001,,
,,,,,,,,,,,,,,,,,0.25,-0.182291667,1,0,0,image_8,0,4,4,29,1,1222,A patio with tables and chairs in front of a restaurant.,M,0,8,video-storytelling-videocamping_dBXYM3dQTSo-shot78_0,Images/video-storytelling-videocamping_dBXYM3dQTSo-shot78_0/img0.jpg,Images/video-storytelling-videocamping_dBXYM3dQTSo-shot78_0/img3.jpg,Images/video-storytelling-videocamping_dBXYM3dQTSo-shot78_0/img11.jpg,Images/video-storytelling-videocamping_dBXYM3dQTSo-shot78_0/img16.jpg,Images/video-storytelling-videocamping_dBXYM3dQTSo-shot78_0/img19.jpg,Images/video-storytelling-videocamping_dBXYM3dQTSo-shot78_0/img23.jpg,Images/video-storytelling-videocamping_dBXYM3dQTSo-shot78_0/img25.jpg,Images/video-storytelling-videocamping_dBXYM3dQTSo-shot78_0/img33.jpg,Images/video-storytelling-videocamping_dBXYM3dQTSo-shot78_0/img41.jpg,Images/video-storytelling-videocamping_dBXYM3dQTSo-shot78_0/img43.jpg,198,32,0,2022-06-16_01h17.25.469,annotation,2021.2.3,Win32,60.0024001,,
,,,,,,,,,,,,,,,,,-0.46484375,-0.165364583,1,0,0,image_5,0,5,5,27,1,612,The woman's bottom teeth are visible but not her top teeth. Her right ear is slightly covering the cabinet behind it in the background but not the rest of her head.,H,0,5,YouCook-video0010-shot0_1,Images/YouCook-video0010-shot0_1/img180.jpg,Images/YouCook-video0010-shot0_1/img188.jpg,Images/YouCook-video0010-shot0_1/img194.jpg,Images/YouCook-video0010-shot0_1/img200.jpg,Images/YouCook-video0010-shot0_1/img204.jpg,Images/YouCook-video0010-shot0_1/img210.jpg,Images/YouCook-video0010-shot0_1/img216.jpg,Images/YouCook-video0010-shot0_1/img222.jpg,Images/YouCook-video0010-shot0_1/img232.jpg,Images/YouCook-video0010-shot0_1/img244.jpg,103,32,0,2022-06-16_01h17.25.469,annotation,2021.2.3,Win32,60.0024001,,
,,,,,,,,,,,,,,,,,0.319010417,0.1015625,1,0,0,image_3,0,6,6,48,1,869,theres a red stain splattered on the floor just under the gun barrel,H,1,4,MSR-VTT-videoTestVideo_video8356-shot1_6,Images/MSR-VTT-videoTestVideo_video8356-shot1_6/img498.jpg,Images/MSR-VTT-videoTestVideo_video8356-shot1_6/img499.jpg,Images/MSR-VTT-videoTestVideo_video8356-shot1_6/img508.jpg,Images/MSR-VTT-videoTestVideo_video8356-shot1_6/img518.jpg,Images/MSR-VTT-videoTestVideo_video8356-shot1_6/img525.jpg,Images/MSR-VTT-videoTestVideo_video8356-shot1_6/img531.jpg,Images/MSR-VTT-videoTestVideo_video8356-shot1_6/img543.jpg,Images/MSR-VTT-videoTestVideo_video8356-shot1_6/img546.jpg,Images/MSR-VTT-videoTestVideo_video8356-shot1_6/img550.jpg,Images/MSR-VTT-videoTestVideo_video8356-shot1_6/img554.jpg,1815,32,0,2022-06-16_01h17.25.469,annotation,2021.2.3,Win32,60.0024001,,
,,,,,,,,,,,,,,,,,-0.0234375,0.138020833,1,0,0,image_2,0,7,7,61,1,3,A grey elephant with golden leaves on it. ,H,,2,open-images-1745_0ed62fe71809b2f5,Checks/check4/open-images-2609_3f72daeb23764ecfimg6.jpg,Checks/check4/open-images-1928_60679e2899870e08img1.jpg,Checks/check4/open-images-1745_0ed62fe71809b2f5img2.jpg,Checks/check4/open-images-1811_9ae6351c7f7565edimg0.jpg,Checks/check4/open-images-1721_6f04da11945ea492img3.jpg,Checks/check4/open-images-1907_5f9be3e4ea5e22c7img2.jpg,Checks/check4/open-images-580_0ddffb9c25141999img1.jpg,Checks/check4/open-images-2924_0645dcbcf998fed9img3.jpg,Checks/check4/open-images-869_856ecbcb5faf76e3img8.jpg,Checks/check4/open-images-250_02039517e63a91fbimg1.jpg,,,1,2022-06-16_01h17.25.469,annotation,2021.2.3,Win32,60.0024001,,
,,,,,,,,,,,,,,,,,-0.505208333,-0.135416667,1,0,0,image_5,0,8,8,37,1,821,A person driving a car.  Only one windshield wiper is seen. ,H,0,5,MSR-VTT-videoTestVideo_video9446-shot1_0,Images/MSR-VTT-videoTestVideo_video9446-shot1_0/img0.jpg,Images/MSR-VTT-videoTestVideo_video9446-shot1_0/img4.jpg,Images/MSR-VTT-videoTestVideo_video9446-shot1_0/img12.jpg,Images/MSR-VTT-videoTestVideo_video9446-shot1_0/img17.jpg,Images/MSR-VTT-videoTestVideo_video9446-shot1_0/img19.jpg,Images/MSR-VTT-videoTestVideo_video9446-shot1_0/img26.jpg,Images/MSR-VTT-videoTestVideo_video9446-shot1_0/img36.jpg,Images/MSR-VTT-videoTestVideo_video9446-shot1_0/img54.jpg,Images/MSR-VTT-videoTestVideo_video9446-shot1_0/img100.jpg,Images/MSR-VTT-videoTestVideo_video9446-shot1_0/img101.jpg,378,32,0,2022-06-16_01h17.25.469,annotation,2021.2.3,Win32,60.0024001,,
,,,,,,,,,,,,,,,,,0.264322917,0.12109375,1,0,0,image_3,0,9,9,49,1,377,Four fingers can clearly be seen on her right hand.  Only her pointer fingernail can be seen. The other hand is not present. ,H,1,3,MSR-VTT-videoTestVideo_video7456-shot1_0,Images/MSR-VTT-videoTestVideo_video7456-shot1_0/img0.jpg,Images/MSR-VTT-videoTestVideo_video7456-shot1_0/img8.jpg,Images/MSR-VTT-videoTestVideo_video7456-shot1_0/img33.jpg,Images/MSR-VTT-videoTestVideo_video7456-shot1_0/img39.jpg,Images/MSR-VTT-videoTestVideo_video7456-shot1_0/img56.jpg,Images/MSR-VTT-videoTestVideo_video7456-shot1_0/img67.jpg,Images/MSR-VTT-videoTestVideo_video7456-shot1_0/img81.jpg,Images/MSR-VTT-videoTestVideo_video7456-shot1_0/img84.jpg,Images/MSR-VTT-videoTestVideo_video7456-shot1_0/img92.jpg,Images/MSR-VTT-videoTestVideo_video7456-shot1_0/img96.jpg,842,32,0,2022-06-16_01h17.25.469,annotation,2021.2.3,Win32,60.0024001,,
,,,,,,,,,,,,,,,,,-0.209635417,-0.196614583,1,0,0,image_6,0,10,10,55,1,468,"The woman's right hand is placed in the middle of the beans. Her left had is not touching the beans, but is on top of it in a grabbing motion.",H,1,6,YouCook-video0016-shot3_4,Images/YouCook-video0016-shot3_4/img653.jpg,Images/YouCook-video0016-shot3_4/img656.jpg,Images/YouCook-video0016-shot3_4/img658.jpg,Images/YouCook-video0016-shot3_4/img671.jpg,Images/YouCook-video0016-shot3_4/img685.jpg,Images/YouCook-video0016-shot3_4/img706.jpg,Images/YouCook-video0016-shot3_4/img710.jpg,Images/YouCook-video0016-shot3_4/img713.jpg,Images/YouCook-video0016-shot3_4/img726.jpg,Images/YouCook-video0016-shot3_4/img730.jpg,914,32,0,2022-06-16_01h17.25.469,annotation,2021.2.3,Win32,60.0024001,,
,,,,,,,,,,,,,,,,,-0.557291667,-0.162760417,1,0,0,image_5,0,11,11,46,1,1092,A woman standing in front of a mirror with a cell phone in her hand.,M,0,8,MSR-VTT-videoTestVideo_video7996-shot2_0,Images/MSR-VTT-videoTestVideo_video7996-shot2_0/img0.jpg,Images/MSR-VTT-videoTestVideo_video7996-shot2_0/img2.jpg,Images/MSR-VTT-videoTestVideo_video7996-shot2_0/img6.jpg,Images/MSR-VTT-videoTestVideo_video7996-shot2_0/img10.jpg,Images/MSR-VTT-videoTestVideo_video7996-shot2_0/img16.jpg,Images/MSR-VTT-videoTestVideo_video7996-shot2_0/img22.jpg,Images/MSR-VTT-videoTestVideo_video7996-shot2_0/img49.jpg,Images/MSR-VTT-videoTestVideo_video7996-shot2_0/img56.jpg,Images/MSR-VTT-videoTestVideo_video7996-shot2_0/img89.jpg,Images/MSR-VTT-videoTestVideo_video7996-shot2_0/img101.jpg,1819,32,0,2022-06-16_01h17.25.469,annotation,2021.2.3,Win32,60.0024001,,
,,,,,,,,,,,,,,,,,0.502604167,-0.157552083,1,0,0,image_9,0,12,12,45,1,1936,A group of men standing on a football field.,M,0,8,MSR-VTT-videoTestVideo_video9469-shot0_3,Images/MSR-VTT-videoTestVideo_video9469-shot0_3/img101.jpg,Images/MSR-VTT-videoTestVideo_video9469-shot0_3/img104.jpg,Images/MSR-VTT-videoTestVideo_video9469-shot0_3/img106.jpg,Images/MSR-VTT-videoTestVideo_video9469-shot0_3/img109.jpg,Images/MSR-VTT-videoTestVideo_video9469-shot0_3/img111.jpg,Images/MSR-VTT-videoTestVideo_video9469-shot0_3/img115.jpg,Images/MSR-VTT-videoTestVideo_video9469-shot0_3/img120.jpg,Images/MSR-VTT-videoTestVideo_video9469-shot0_3/img121.jpg,Images/MSR-VTT-videoTestVideo_video9469-shot0_3/img122.jpg,Images/MSR-VTT-videoTestVideo_video9469-shot0_3/img125.jpg,818,32,0,2022-06-16_01h17.25.469,annotation,2021.2.3,Win32,60.0024001,,
,,,,,,,,,,,,,,,,,-0.26171875,-0.165364583,1,0,0,image_6,0,13,13,2,1,444,The man is completely facing forward and his hand is at 12:00.,H,0,6,MSR-VTT-videoTestVideo_video8971-shot1_0,Images/MSR-VTT-videoTestVideo_video8971-shot1_0/img0.jpg,Images/MSR-VTT-videoTestVideo_video8971-shot1_0/img3.jpg,Images/MSR-VTT-videoTestVideo_video8971-shot1_0/img8.jpg,Images/MSR-VTT-videoTestVideo_video8971-shot1_0/img26.jpg,Images/MSR-VTT-videoTestVideo_video8971-shot1_0/img32.jpg,Images/MSR-VTT-videoTestVideo_video8971-shot1_0/img45.jpg,Images/MSR-VTT-videoTestVideo_video8971-shot1_0/img60.jpg,Images/MSR-VTT-videoTestVideo_video8971-shot1_0/img79.jpg,Images/MSR-VTT-videoTestVideo_video8971-shot1_0/img106.jpg,Images/MSR-VTT-videoTestVideo_video8971-shot1_0/img125.jpg,293,32,0,2022-06-16_01h17.25.469,annotation,2021.2.3,Win32,60.0024001,,
,,,,,,,,,,,,,,,,,-0.475260417,0.145833333,1,0,0,image_0,0,14,14,31,1,1401,A dog standing next to a person's hair.,M,0,3,MSR-VTT-videoTestVideo_video9158-shot1_5,Images/MSR-VTT-videoTestVideo_video9158-shot1_5/img237.jpg,Images/MSR-VTT-videoTestVideo_video9158-shot1_5/img239.jpg,Images/MSR-VTT-videoTestVideo_video9158-shot1_5/img247.jpg,Images/MSR-VTT-videoTestVideo_video9158-shot1_5/img256.jpg,Images/MSR-VTT-videoTestVideo_video9158-shot1_5/img258.jpg,Images/MSR-VTT-videoTestVideo_video9158-shot1_5/img261.jpg,Images/MSR-VTT-videoTestVideo_video9158-shot1_5/img263.jpg,Images/MSR-VTT-videoTestVideo_video9158-shot1_5/img266.jpg,Images/MSR-VTT-videoTestVideo_video9158-shot1_5/img269.jpg,Images/MSR-VTT-videoTestVideo_video9158-shot1_5/img272.jpg,1703,32,0,2022-06-16_01h17.25.469,annotation,2021.2.3,Win32,60.0024001,,
,,,,,,,,,,,,,,,,,-0.263020833,-0.169270833,1,0,0,image_6,0,15,15,3,1,282,The gun is turned sideways at the very bottom of the picture.,H,0,6,MSR-VTT-videoTestVideo_video8356-shot1_8,Images/MSR-VTT-videoTestVideo_video8356-shot1_8/img602.jpg,Images/MSR-VTT-videoTestVideo_video8356-shot1_8/img624.jpg,Images/MSR-VTT-videoTestVideo_video8356-shot1_8/img627.jpg,Images/MSR-VTT-videoTestVideo_video8356-shot1_8/img657.jpg,Images/MSR-VTT-videoTestVideo_video8356-shot1_8/img675.jpg,Images/MSR-VTT-videoTestVideo_video8356-shot1_8/img700.jpg,Images/MSR-VTT-videoTestVideo_video8356-shot1_8/img715.jpg,Images/MSR-VTT-videoTestVideo_video8356-shot1_8/img751.jpg,Images/MSR-VTT-videoTestVideo_video8356-shot1_8/img764.jpg,Images/MSR-VTT-videoTestVideo_video8356-shot1_8/img799.jpg,1848,32,0,2022-06-16_01h17.25.469,annotation,2021.2.3,Win32,60.0024001,,
,,,,,,,,,,,,,,,,,-0.518229167,-0.115885417,1,0,0,image_5,0,16,16,59,1,1,The only picture of a hawk.  It is looking to the left.  You see lots of branches and darker blue sky. ,H,,5,open-images-958_686caac9c5b322e7,Checks/check2/open-images-2603_1b5152f01f0093e7img3.jpg,Checks/check2/open-images-1836_069810916ce5d675img8.jpg,Checks/check2/open-images-974_0748fdedc4bf8b7bimg2.jpg,Checks/check2/open-images-617_01fb725fb1aa7b04img6.jpg,Checks/check2/open-images-507_047769e1f977cd97img2.jpg,Checks/check2/open-images-958_686caac9c5b322e7img5.jpg,Checks/check2/open-images-1278_21851d9bf5dc05c9img7.jpg,Checks/check2/open-images-2424_05f04546e01499f2img0.jpg,Checks/check2/open-images-1529_1442b11a10a6aeadimg3.jpg,Checks/check2/open-images-514_2c523ddedc2561d4img1.jpg,,,1,2022-06-16_01h17.25.469,annotation,2021.2.3,Win32,60.0024001,,
,,,,,,,,,,,,,,,,,-0.4296875,-0.125,1,0,0,image_5,0,17,17,57,1,61,Part of the right side (picture left side) of the woman's face is covered by the shoulder of the person in front of her.  Her teeth are bared and you can see both top and bottom teeth clearly. ,H,0,5,MSR-VTT-videoTestVideo_video7051-shot3_0,Images/MSR-VTT-videoTestVideo_video7051-shot3_0/img0.jpg,Images/MSR-VTT-videoTestVideo_video7051-shot3_0/img2.jpg,Images/MSR-VTT-videoTestVideo_video7051-shot3_0/img5.jpg,Images/MSR-VTT-videoTestVideo_video7051-shot3_0/img8.jpg,Images/MSR-VTT-videoTestVideo_video7051-shot3_0/img9.jpg,Images/MSR-VTT-videoTestVideo_video7051-shot3_0/img14.jpg,Images/MSR-VTT-videoTestVideo_video7051-shot3_0/img19.jpg,Images/MSR-VTT-videoTestVideo_video7051-shot3_0/img23.jpg,Images/MSR-VTT-videoTestVideo_video7051-shot3_0/img25.jpg,Images/MSR-VTT-videoTestVideo_video7051-shot3_0/img28.jpg,27,32,0,2022-06-16_01h17.25.469,annotation,2021.2.3,Win32,60.0024001,,
,,,,,,,,,,,,,,,,,0.537760417,0.140625,1,0,0,image_4,0,18,18,26,1,977,The large cat's eyes are both in frame but closed.,H,0,3,MSR-VTT-videoTestVideo_video9672-shot1_1,Images/MSR-VTT-videoTestVideo_video9672-shot1_1/img53.jpg,Images/MSR-VTT-videoTestVideo_video9672-shot1_1/img64.jpg,Images/MSR-VTT-videoTestVideo_video9672-shot1_1/img65.jpg,Images/MSR-VTT-videoTestVideo_video9672-shot1_1/img69.jpg,Images/MSR-VTT-videoTestVideo_video9672-shot1_1/img78.jpg,Images/MSR-VTT-videoTestVideo_video9672-shot1_1/img81.jpg,Images/MSR-VTT-videoTestVideo_video9672-shot1_1/img82.jpg,Images/MSR-VTT-videoTestVideo_video9672-shot1_1/img88.jpg,Images/MSR-VTT-videoTestVideo_video9672-shot1_1/img95.jpg,Images/MSR-VTT-videoTestVideo_video9672-shot1_1/img100.jpg,1562,32,0,2022-06-16_01h17.25.469,annotation,2021.2.3,Win32,60.0024001,,
,,,,,,,,,,,,,,,,,-0.493489583,-0.169270833,1,0,0,image_5,0,19,19,9,1,754,The woman in pink has her hand slightly covering the lower right part of the man's face in back.  Her mouth is open and you can see her tongue.  ,H,0,2,MSR-VTT-videoTestVideo_video7621-shot0_0,Images/MSR-VTT-videoTestVideo_video7621-shot0_0/img0.jpg,Images/MSR-VTT-videoTestVideo_video7621-shot0_0/img5.jpg,Images/MSR-VTT-videoTestVideo_video7621-shot0_0/img14.jpg,Images/MSR-VTT-videoTestVideo_video7621-shot0_0/img20.jpg,Images/MSR-VTT-videoTestVideo_video7621-shot0_0/img22.jpg,Images/MSR-VTT-videoTestVideo_video7621-shot0_0/img29.jpg,Images/MSR-VTT-videoTestVideo_video7621-shot0_0/img36.jpg,Images/MSR-VTT-videoTestVideo_video7621-shot0_0/img40.jpg,Images/MSR-VTT-videoTestVideo_video7621-shot0_0/img44.jpg,Images/MSR-VTT-videoTestVideo_video7621-shot0_0/img49.jpg,1653,32,0,2022-06-16_01h17.25.469,annotation,2021.2.3,Win32,60.0024001,,
,,,,,,,,,,,,,,,,,0.4609375,-0.1484375,1,0,0,image_9,0,20,20,33,1,1777,A couple of people that are on a skateboard.,M,0,4,MSR-VTT-videoTestVideo_video9121-shot1_0,Images/MSR-VTT-videoTestVideo_video9121-shot1_0/img0.jpg,Images/MSR-VTT-videoTestVideo_video9121-shot1_0/img8.jpg,Images/MSR-VTT-videoTestVideo_video9121-shot1_0/img20.jpg,Images/MSR-VTT-videoTestVideo_video9121-shot1_0/img30.jpg,Images/MSR-VTT-videoTestVideo_video9121-shot1_0/img37.jpg,Images/MSR-VTT-videoTestVideo_video9121-shot1_0/img44.jpg,Images/MSR-VTT-videoTestVideo_video9121-shot1_0/img47.jpg,Images/MSR-VTT-videoTestVideo_video9121-shot1_0/img49.jpg,Images/MSR-VTT-videoTestVideo_video9121-shot1_0/img54.jpg,Images/MSR-VTT-videoTestVideo_video9121-shot1_0/img66.jpg,1245,32,0,2022-06-16_01h17.25.469,annotation,2021.2.3,Win32,60.0024001,,
,,,,,,,,,,,,,,,,,0.057291667,0.131510417,1,0,0,image_2,0,21,21,58,1,0,Pair of black gloves,H,,2,open-images-510_3a241cb30d6e5319,Checks/check1/open-images-225_1442c0d0ef23d58bimg3.jpg,Checks/check1/open-images-2759_3a42708fe77398b7img8.jpg,Checks/check1/open-images-510_3a241cb30d6e5319img2.jpg,Checks/check1/open-images-2209_02c98146fb93ff17img1.jpg,Checks/check1/open-images-1553_0f128317e56a9d2fimg9.jpg,Checks/check1/open-images-2666_044d7c6d11e6b493img8.jpg,Checks/check1/open-images-2880_159294646083f545img4.jpg,Checks/check1/open-images-609_2dc0baa993a2bd25img5.jpg,Checks/check1/open-images-1854_2b15616b4f1080e7img2.jpg,Checks/check1/open-images-1435_1b0ce31951048765img8.jpg,,,1,2022-06-16_01h17.25.469,annotation,2021.2.3,Win32,60.0024001,,
,,,,,,,,,,,,,,,,,-0.010416667,-0.16015625,1,0,0,image_7,0,22,22,51,1,573,The spoon is off to the right not touching or covering any of the brown filling of the appetizer.,H,0,7,MSR-VTT-videoTestVideo_video7321-shot1_3,Images/MSR-VTT-videoTestVideo_video7321-shot1_3/img281.jpg,Images/MSR-VTT-videoTestVideo_video7321-shot1_3/img288.jpg,Images/MSR-VTT-videoTestVideo_video7321-shot1_3/img293.jpg,Images/MSR-VTT-videoTestVideo_video7321-shot1_3/img314.jpg,Images/MSR-VTT-videoTestVideo_video7321-shot1_3/img316.jpg,Images/MSR-VTT-videoTestVideo_video7321-shot1_3/img325.jpg,Images/MSR-VTT-videoTestVideo_video7321-shot1_3/img328.jpg,Images/MSR-VTT-videoTestVideo_video7321-shot1_3/img331.jpg,Images/MSR-VTT-videoTestVideo_video7321-shot1_3/img345.jpg,Images/MSR-VTT-videoTestVideo_video7321-shot1_3/img347.jpg,948,32,0,2022-06-16_01h17.25.469,annotation,2021.2.3,Win32,60.0024001,,
,,,,,,,,,,,,,,,,,0.263020833,0.114583333,1,0,0,image_3,0,23,23,11,1,1149,A man and a woman standing next to each other.,M,0,0,video-storytelling-videowedding_Bp8t824h5NE-shot69_0,Images/video-storytelling-videowedding_Bp8t824h5NE-shot69_0/img0.jpg,Images/video-storytelling-videowedding_Bp8t824h5NE-shot69_0/img13.jpg,Images/video-storytelling-videowedding_Bp8t824h5NE-shot69_0/img95.jpg,Images/video-storytelling-videowedding_Bp8t824h5NE-shot69_0/img130.jpg,Images/video-storytelling-videowedding_Bp8t824h5NE-shot69_0/img145.jpg,Images/video-storytelling-videowedding_Bp8t824h5NE-shot69_0/img152.jpg,Images/video-storytelling-videowedding_Bp8t824h5NE-shot69_0/img164.jpg,Images/video-storytelling-videowedding_Bp8t824h5NE-shot69_0/img195.jpg,Images/video-storytelling-videowedding_Bp8t824h5NE-shot69_0/img205.jpg,Images/video-storytelling-videowedding_Bp8t824h5NE-shot69_0/img226.jpg,308,32,0,2022-06-16_01h17.25.469,annotation,2021.2.3,Win32,60.0024001,,
,,,,,,,,,,,,,,,,,0.479166667,-0.190104167,1,0,0,image_9,0,24,24,24,1,1314,A person is holding a plastic box in their hands.,M,1,5,MSR-VTT-videoTestVideo_video8765-shot1_3,Images/MSR-VTT-videoTestVideo_video8765-shot1_3/img182.jpg,Images/MSR-VTT-videoTestVideo_video8765-shot1_3/img188.jpg,Images/MSR-VTT-videoTestVideo_video8765-shot1_3/img205.jpg,Images/MSR-VTT-videoTestVideo_video8765-shot1_3/img207.jpg,Images/MSR-VTT-videoTestVideo_video8765-shot1_3/img212.jpg,Images/MSR-VTT-videoTestVideo_video8765-shot1_3/img218.jpg,Images/MSR-VTT-videoTestVideo_video8765-shot1_3/img229.jpg,Images/MSR-VTT-videoTestVideo_video8765-shot1_3/img237.jpg,Images/MSR-VTT-videoTestVideo_video8765-shot1_3/img248.jpg,Images/MSR-VTT-videoTestVideo_video8765-shot1_3/img254.jpg,1893,32,0,2022-06-16_01h17.25.469,annotation,2021.2.3,Win32,60.0024001,,
,,,,,,,,,,,,,,,,,0.069010417,0.1015625,1,0,0,image_2,0,25,25,34,1,920,You can see the girl in white's shirt but her head is not visible.,H,0,2,MSR-VTT-videoTestVideo_video8242-shot0_0,Images/MSR-VTT-videoTestVideo_video8242-shot0_0/img0.jpg,Images/MSR-VTT-videoTestVideo_video8242-shot0_0/img13.jpg,Images/MSR-VTT-videoTestVideo_video8242-shot0_0/img15.jpg,Images/MSR-VTT-videoTestVideo_video8242-shot0_0/img17.jpg,Images/MSR-VTT-videoTestVideo_video8242-shot0_0/img19.jpg,Images/MSR-VTT-videoTestVideo_video8242-shot0_0/img21.jpg,Images/MSR-VTT-videoTestVideo_video8242-shot0_0/img22.jpg,Images/MSR-VTT-videoTestVideo_video8242-shot0_0/img23.jpg,Images/MSR-VTT-videoTestVideo_video8242-shot0_0/img28.jpg,Images/MSR-VTT-videoTestVideo_video8242-shot0_0/img36.jpg,1427,32,0,2022-06-16_01h17.25.469,annotation,2021.2.3,Win32,60.0024001,,
,,,,,,,,,,,,,,,,,0.27734375,0.154947917,1,0,0,image_3,0,26,26,16,1,617,The black car is in the middle of the screen about to hit the tan car.,H,1,3,MSR-VTT-videoTestVideo_video7662-shot2_0,Images/MSR-VTT-videoTestVideo_video7662-shot2_0/img0.jpg,Images/MSR-VTT-videoTestVideo_video7662-shot2_0/img9.jpg,Images/MSR-VTT-videoTestVideo_video7662-shot2_0/img15.jpg,Images/MSR-VTT-videoTestVideo_video7662-shot2_0/img49.jpg,Images/MSR-VTT-videoTestVideo_video7662-shot2_0/img75.jpg,Images/MSR-VTT-videoTestVideo_video7662-shot2_0/img85.jpg,Images/MSR-VTT-videoTestVideo_video7662-shot2_0/img105.jpg,Images/MSR-VTT-videoTestVideo_video7662-shot2_0/img117.jpg,Images/MSR-VTT-videoTestVideo_video7662-shot2_0/img121.jpg,Images/MSR-VTT-videoTestVideo_video7662-shot2_0/img130.jpg,116,32,0,2022-06-16_01h17.25.469,annotation,2021.2.3,Win32,60.0024001,,
,,,,,,,,,,,,,,,,,-0.424479167,0.135416667,1,0,0,image_0,0,27,27,54,1,1859,A woman standing in front of a table filled with food.,M,0,3,video-storytelling-videobirthday_fwpYnUDbusw-shot8_6,Images/video-storytelling-videobirthday_fwpYnUDbusw-shot8_6/img348.jpg,Images/video-storytelling-videobirthday_fwpYnUDbusw-shot8_6/img351.jpg,Images/video-storytelling-videobirthday_fwpYnUDbusw-shot8_6/img360.jpg,Images/video-storytelling-videobirthday_fwpYnUDbusw-shot8_6/img368.jpg,Images/video-storytelling-videobirthday_fwpYnUDbusw-shot8_6/img374.jpg,Images/video-storytelling-videobirthday_fwpYnUDbusw-shot8_6/img382.jpg,Images/video-storytelling-videobirthday_fwpYnUDbusw-shot8_6/img388.jpg,Images/video-storytelling-videobirthday_fwpYnUDbusw-shot8_6/img397.jpg,Images/video-storytelling-videobirthday_fwpYnUDbusw-shot8_6/img401.jpg,Images/video-storytelling-videobirthday_fwpYnUDbusw-shot8_6/img405.jpg,1649,32,0,2022-06-16_01h17.25.469,annotation,2021.2.3,Win32,60.0024001,,
,,,,,,,,,,,,,,,,,-0.549479167,0.1328125,1,0,0,image_0,0,28,28,28,1,1554,A white plate topped with a bowl of food.,M,0,5,MSR-VTT-videoTestVideo_video9640-shot1_1,Images/MSR-VTT-videoTestVideo_video9640-shot1_1/img80.jpg,Images/MSR-VTT-videoTestVideo_video9640-shot1_1/img85.jpg,Images/MSR-VTT-videoTestVideo_video9640-shot1_1/img90.jpg,Images/MSR-VTT-videoTestVideo_video9640-shot1_1/img91.jpg,Images/MSR-VTT-videoTestVideo_video9640-shot1_1/img163.jpg,Images/MSR-VTT-videoTestVideo_video9640-shot1_1/img169.jpg,Images/MSR-VTT-videoTestVideo_video9640-shot1_1/img174.jpg,Images/MSR-VTT-videoTestVideo_video9640-shot1_1/img175.jpg,Images/MSR-VTT-videoTestVideo_video9640-shot1_1/img176.jpg,Images/MSR-VTT-videoTestVideo_video9640-shot1_1/img181.jpg,1335,32,0,2022-06-16_01h17.25.469,annotation,2021.2.3,Win32,60.0024001,,
,,,,,,,,,,,,,,,,,0.0234375,0.161458333,1,0,0,image_2,0,29,29,44,1,26,The finger of the hand are close together and above a piles of leaves. The thumb is close to the index finger.,H,1,2,video-storytelling-videocamping_EytINruY3-U-shot37_1,Images/video-storytelling-videocamping_EytINruY3-U-shot37_1/img322.jpg,Images/video-storytelling-videocamping_EytINruY3-U-shot37_1/img326.jpg,Images/video-storytelling-videocamping_EytINruY3-U-shot37_1/img333.jpg,Images/video-storytelling-videocamping_EytINruY3-U-shot37_1/img342.jpg,Images/video-storytelling-videocamping_EytINruY3-U-shot37_1/img364.jpg,Images/video-storytelling-videocamping_EytINruY3-U-shot37_1/img407.jpg,Images/video-storytelling-videocamping_EytINruY3-U-shot37_1/img431.jpg,Images/video-storytelling-videocamping_EytINruY3-U-shot37_1/img434.jpg,Images/video-storytelling-videocamping_EytINruY3-U-shot37_1/img443.jpg,Images/video-storytelling-videocamping_EytINruY3-U-shot37_1/img448.jpg,1342,32,0,2022-06-16_01h17.25.469,annotation,2021.2.3,Win32,60.0024001,,
,,,,,,,,,,,,,,,,,-0.451822917,-0.188802083,1,0,0,image_5,0,30,30,30,1,810,The back half of the group of racers are directly below the white triangular canopies near the audience.,H,0,4,MSR-VTT-videoTestVideo_video9973-shot1_1,Images/MSR-VTT-videoTestVideo_video9973-shot1_1/img80.jpg,Images/MSR-VTT-videoTestVideo_video9973-shot1_1/img111.jpg,Images/MSR-VTT-videoTestVideo_video9973-shot1_1/img114.jpg,Images/MSR-VTT-videoTestVideo_video9973-shot1_1/img127.jpg,Images/MSR-VTT-videoTestVideo_video9973-shot1_1/img142.jpg,Images/MSR-VTT-videoTestVideo_video9973-shot1_1/img148.jpg,Images/MSR-VTT-videoTestVideo_video9973-shot1_1/img161.jpg,Images/MSR-VTT-videoTestVideo_video9973-shot1_1/img168.jpg,Images/MSR-VTT-videoTestVideo_video9973-shot1_1/img185.jpg,Images/MSR-VTT-videoTestVideo_video9973-shot1_1/img188.jpg,2066,32,0,2022-06-16_01h17.25.469,annotation,2021.2.3,Win32,60.0024001,,
,,,,,,,,,,,,,,,,,0.501302083,-0.100260417,1,0,0,image_9,0,31,31,5,1,2036,A group of people sitting at a table in front of a large crowd of people.,M,0,4,video-storytelling-videowedding_Bp8t824h5NE-shot44_0,Images/video-storytelling-videowedding_Bp8t824h5NE-shot44_0/img0.jpg,Images/video-storytelling-videowedding_Bp8t824h5NE-shot44_0/img4.jpg,Images/video-storytelling-videowedding_Bp8t824h5NE-shot44_0/img22.jpg,Images/video-storytelling-videowedding_Bp8t824h5NE-shot44_0/img48.jpg,Images/video-storytelling-videowedding_Bp8t824h5NE-shot44_0/img62.jpg,Images/video-storytelling-videowedding_Bp8t824h5NE-shot44_0/img65.jpg,Images/video-storytelling-videowedding_Bp8t824h5NE-shot44_0/img73.jpg,Images/video-storytelling-videowedding_Bp8t824h5NE-shot44_0/img83.jpg,Images/video-storytelling-videowedding_Bp8t824h5NE-shot44_0/img99.jpg,Images/video-storytelling-videowedding_Bp8t824h5NE-shot44_0/img120.jpg,1979,32,0,2022-06-16_01h17.25.469,annotation,2021.2.3,Win32,60.0024001,,
,,,,,,,,,,,,,,,,,0.5234375,-0.182291667,1,0,0,image_9,0,32,32,36,1,1898,A little boy wearing a hat and holding a cell phone.,M,0,5,video-storytelling-videobirthday__amwPjAcoC8-shot73_6,Images/video-storytelling-videobirthday__amwPjAcoC8-shot73_6/img243.jpg,Images/video-storytelling-videobirthday__amwPjAcoC8-shot73_6/img244.jpg,Images/video-storytelling-videobirthday__amwPjAcoC8-shot73_6/img247.jpg,Images/video-storytelling-videobirthday__amwPjAcoC8-shot73_6/img249.jpg,Images/video-storytelling-videobirthday__amwPjAcoC8-shot73_6/img252.jpg,Images/video-storytelling-videobirthday__amwPjAcoC8-shot73_6/img266.jpg,Images/video-storytelling-videobirthday__amwPjAcoC8-shot73_6/img288.jpg,Images/video-storytelling-videobirthday__amwPjAcoC8-shot73_6/img293.jpg,Images/video-storytelling-videobirthday__amwPjAcoC8-shot73_6/img294.jpg,Images/video-storytelling-videobirthday__amwPjAcoC8-shot73_6/img296.jpg,1429,32,0,2022-06-16_01h17.25.469,annotation,2021.2.3,Win32,60.0024001,,
,,,,,,,,,,,,,,,,,0.540364583,-0.16015625,1,0,0,image_9,0,33,33,15,1,1609,A bowl full of food in a bowl on a table.,M,0,4,YouCook-video0083-shot15_2,Images/YouCook-video0083-shot15_2/img82.jpg,Images/YouCook-video0083-shot15_2/img85.jpg,Images/YouCook-video0083-shot15_2/img94.jpg,Images/YouCook-video0083-shot15_2/img96.jpg,Images/YouCook-video0083-shot15_2/img106.jpg,Images/YouCook-video0083-shot15_2/img118.jpg,Images/YouCook-video0083-shot15_2/img122.jpg,Images/YouCook-video0083-shot15_2/img124.jpg,Images/YouCook-video0083-shot15_2/img128.jpg,Images/YouCook-video0083-shot15_2/img143.jpg,551,32,0,2022-06-16_01h17.25.469,annotation,2021.2.3,Win32,60.0024001,,
,,,,,,,,,,,,,,,,,-0.229166667,-0.095052083,1,0,0,image_6,0,34,34,52,1,301,The girl is down on the ground. Her leg is bend and the heel of this leg is next to her butt. ,H,0,6,MSR-VTT-videoTestVideo_video7057-shot1_11,Images/MSR-VTT-videoTestVideo_video7057-shot1_11/img273.jpg,Images/MSR-VTT-videoTestVideo_video7057-shot1_11/img276.jpg,Images/MSR-VTT-videoTestVideo_video7057-shot1_11/img279.jpg,Images/MSR-VTT-videoTestVideo_video7057-shot1_11/img281.jpg,Images/MSR-VTT-videoTestVideo_video7057-shot1_11/img285.jpg,Images/MSR-VTT-videoTestVideo_video7057-shot1_11/img290.jpg,Images/MSR-VTT-videoTestVideo_video7057-shot1_11/img294.jpg,Images/MSR-VTT-videoTestVideo_video7057-shot1_11/img295.jpg,Images/MSR-VTT-videoTestVideo_video7057-shot1_11/img298.jpg,Images/MSR-VTT-videoTestVideo_video7057-shot1_11/img299.jpg,840,32,0,2022-06-16_01h17.25.469,annotation,2021.2.3,Win32,60.0024001,,
,,,,,,,,,,,,,,,,,0.477864583,-0.161458333,1,0,0,image_9,0,35,35,14,1,913,The person with the glasses is standing nearly straight up.  It is blurry but he is looking sort of to the camera.  He is almost completely blocking the person in the blue plaid in the back,H,0,8,MSR-VTT-videoTestVideo_video7725-shot2_6,Images/MSR-VTT-videoTestVideo_video7725-shot2_6/img192.jpg,Images/MSR-VTT-videoTestVideo_video7725-shot2_6/img198.jpg,Images/MSR-VTT-videoTestVideo_video7725-shot2_6/img201.jpg,Images/MSR-VTT-videoTestVideo_video7725-shot2_6/img205.jpg,Images/MSR-VTT-videoTestVideo_video7725-shot2_6/img217.jpg,Images/MSR-VTT-videoTestVideo_video7725-shot2_6/img222.jpg,Images/MSR-VTT-videoTestVideo_video7725-shot2_6/img225.jpg,Images/MSR-VTT-videoTestVideo_video7725-shot2_6/img226.jpg,Images/MSR-VTT-videoTestVideo_video7725-shot2_6/img232.jpg,Images/MSR-VTT-videoTestVideo_video7725-shot2_6/img236.jpg,356,32,0,2022-06-16_01h17.25.469,annotation,2021.2.3,Win32,60.0024001,,
,,,,,,,,,,,,,,,,,-0.46875,0.127604167,1,0,0,image_0,0,36,36,17,1,1820,A baby drinking from a bottle in a room.,M,0,4,video-storytelling-videochristmas_5RR_sRzKODA-shot30_0,Images/video-storytelling-videochristmas_5RR_sRzKODA-shot30_0/img0.jpg,Images/video-storytelling-videochristmas_5RR_sRzKODA-shot30_0/img24.jpg,Images/video-storytelling-videochristmas_5RR_sRzKODA-shot30_0/img64.jpg,Images/video-storytelling-videochristmas_5RR_sRzKODA-shot30_0/img100.jpg,Images/video-storytelling-videochristmas_5RR_sRzKODA-shot30_0/img130.jpg,Images/video-storytelling-videochristmas_5RR_sRzKODA-shot30_0/img134.jpg,Images/video-storytelling-videochristmas_5RR_sRzKODA-shot30_0/img135.jpg,Images/video-storytelling-videochristmas_5RR_sRzKODA-shot30_0/img137.jpg,Images/video-storytelling-videochristmas_5RR_sRzKODA-shot30_0/img138.jpg,Images/video-storytelling-videochristmas_5RR_sRzKODA-shot30_0/img141.jpg,1053,32,0,2022-06-16_01h17.25.469,annotation,2021.2.3,Win32,60.0024001,,
,,,,,,,,,,,,,,,,,-0.484375,-0.17578125,1,0,0,image_5,0,37,37,39,1,288,There is a pink hexagon from the lighting in front of a man sitting on a red chair.,H,0,5,MSR-VTT-videoTestVideo_video8176-shot1_0,Images/MSR-VTT-videoTestVideo_video8176-shot1_0/img0.jpg,Images/MSR-VTT-videoTestVideo_video8176-shot1_0/img54.jpg,Images/MSR-VTT-videoTestVideo_video8176-shot1_0/img73.jpg,Images/MSR-VTT-videoTestVideo_video8176-shot1_0/img88.jpg,Images/MSR-VTT-videoTestVideo_video8176-shot1_0/img109.jpg,Images/MSR-VTT-videoTestVideo_video8176-shot1_0/img110.jpg,Images/MSR-VTT-videoTestVideo_video8176-shot1_0/img112.jpg,Images/MSR-VTT-videoTestVideo_video8176-shot1_0/img114.jpg,Images/MSR-VTT-videoTestVideo_video8176-shot1_0/img139.jpg,Images/MSR-VTT-videoTestVideo_video8176-shot1_0/img146.jpg,1534,32,0,2022-06-16_01h17.25.469,annotation,2021.2.3,Win32,60.0024001,,
,,,,,,,,,,,,,,,,,-0.513020833,0.1328125,1,0,0,image_0,0,38,38,0,1,1942,A child is holding a flight controller in his hand.,M,0,3,MSR-VTT-videoTestVideo_video9651-shot1_0,Images/MSR-VTT-videoTestVideo_video9651-shot1_0/img0.jpg,Images/MSR-VTT-videoTestVideo_video9651-shot1_0/img4.jpg,Images/MSR-VTT-videoTestVideo_video9651-shot1_0/img9.jpg,Images/MSR-VTT-videoTestVideo_video9651-shot1_0/img10.jpg,Images/MSR-VTT-videoTestVideo_video9651-shot1_0/img12.jpg,Images/MSR-VTT-videoTestVideo_video9651-shot1_0/img13.jpg,Images/MSR-VTT-videoTestVideo_video9651-shot1_0/img18.jpg,Images/MSR-VTT-videoTestVideo_video9651-shot1_0/img36.jpg,Images/MSR-VTT-videoTestVideo_video9651-shot1_0/img68.jpg,Images/MSR-VTT-videoTestVideo_video9651-shot1_0/img90.jpg,469,32,0,2022-06-16_01h17.25.469,annotation,2021.2.3,Win32,60.0024001,,
,,,,,,,,,,,,,,,,,0.450520833,0.190104167,1,0,0,image_4,0,39,39,42,1,1220,A young boy wearing a colorful shirt and tie.,M,0,5,video-storytelling-videochristmas_5RR_sRzKODA-shot23_5,Images/video-storytelling-videochristmas_5RR_sRzKODA-shot23_5/img226.jpg,Images/video-storytelling-videochristmas_5RR_sRzKODA-shot23_5/img236.jpg,Images/video-storytelling-videochristmas_5RR_sRzKODA-shot23_5/img243.jpg,Images/video-storytelling-videochristmas_5RR_sRzKODA-shot23_5/img254.jpg,Images/video-storytelling-videochristmas_5RR_sRzKODA-shot23_5/img256.jpg,Images/video-storytelling-videochristmas_5RR_sRzKODA-shot23_5/img261.jpg,Images/video-storytelling-videochristmas_5RR_sRzKODA-shot23_5/img263.jpg,Images/video-storytelling-videochristmas_5RR_sRzKODA-shot23_5/img264.jpg,Images/video-storytelling-videochristmas_5RR_sRzKODA-shot23_5/img266.jpg,Images/video-storytelling-videochristmas_5RR_sRzKODA-shot23_5/img267.jpg,1509,32,0,2022-06-16_01h17.25.469,annotation,2021.2.3,Win32,60.0024001,,
,,,,,,,,,,,,,,,,,-0.48046875,-0.17578125,1,0,0,image_5,0,40,40,40,1,1449,A woman standing next to a microphone in front of a stage.,M,0,5,MSR-VTT-videoTestVideo_video7756-shot1_0,Images/MSR-VTT-videoTestVideo_video7756-shot1_0/img0.jpg,Images/MSR-VTT-videoTestVideo_video7756-shot1_0/img5.jpg,Images/MSR-VTT-videoTestVideo_video7756-shot1_0/img12.jpg,Images/MSR-VTT-videoTestVideo_video7756-shot1_0/img16.jpg,Images/MSR-VTT-videoTestVideo_video7756-shot1_0/img21.jpg,Images/MSR-VTT-videoTestVideo_video7756-shot1_0/img26.jpg,Images/MSR-VTT-videoTestVideo_video7756-shot1_0/img28.jpg,Images/MSR-VTT-videoTestVideo_video7756-shot1_0/img30.jpg,Images/MSR-VTT-videoTestVideo_video7756-shot1_0/img34.jpg,Images/MSR-VTT-videoTestVideo_video7756-shot1_0/img37.jpg,1726,32,0,2022-06-16_01h17.25.469,annotation,2021.2.3,Win32,60.0024001,,
,,,,,,,,,,,,,,,,,-0.481770833,-0.157552083,1,0,0,image_5,0,41,41,38,1,474,Little boy is holding his arms out looking down at the item.,H,0,6,video-storytelling-videochristmas_5RR_sRzKODA-shot17_6,Images/video-storytelling-videochristmas_5RR_sRzKODA-shot17_6/img297.jpg,Images/video-storytelling-videochristmas_5RR_sRzKODA-shot17_6/img302.jpg,Images/video-storytelling-videochristmas_5RR_sRzKODA-shot17_6/img309.jpg,Images/video-storytelling-videochristmas_5RR_sRzKODA-shot17_6/img313.jpg,Images/video-storytelling-videochristmas_5RR_sRzKODA-shot17_6/img319.jpg,Images/video-storytelling-videochristmas_5RR_sRzKODA-shot17_6/img328.jpg,Images/video-storytelling-videochristmas_5RR_sRzKODA-shot17_6/img332.jpg,Images/video-storytelling-videochristmas_5RR_sRzKODA-shot17_6/img337.jpg,Images/video-storytelling-videochristmas_5RR_sRzKODA-shot17_6/img345.jpg,Images/video-storytelling-videochristmas_5RR_sRzKODA-shot17_6/img349.jpg,759,32,0,2022-06-16_01h17.25.469,annotation,2021.2.3,Win32,60.0024001,,
,,,,,,,,,,,,,,,,,-0.453125,0.114583333,1,0,0,image_0,0,42,42,25,1,1553,A little boy wearing a green jersey holding a baseball bat.,M,0,7,video-storytelling-videobirthday__amwPjAcoC8-shot11_1,Images/video-storytelling-videobirthday__amwPjAcoC8-shot11_1/img35.jpg,Images/video-storytelling-videobirthday__amwPjAcoC8-shot11_1/img41.jpg,Images/video-storytelling-videobirthday__amwPjAcoC8-shot11_1/img46.jpg,Images/video-storytelling-videobirthday__amwPjAcoC8-shot11_1/img56.jpg,Images/video-storytelling-videobirthday__amwPjAcoC8-shot11_1/img101.jpg,Images/video-storytelling-videobirthday__amwPjAcoC8-shot11_1/img112.jpg,Images/video-storytelling-videobirthday__amwPjAcoC8-shot11_1/img118.jpg,Images/video-storytelling-videobirthday__amwPjAcoC8-shot11_1/img120.jpg,Images/video-storytelling-videobirthday__amwPjAcoC8-shot11_1/img121.jpg,Images/video-storytelling-videobirthday__amwPjAcoC8-shot11_1/img125.jpg,68,32,0,2022-06-16_01h17.25.469,annotation,2021.2.3,Win32,60.0024001,,
,,,,,,,,,,,,,,,,,-0.235677083,0.111979167,1,0,0,image_1,0,43,43,21,1,247,a blurry girl kneels down while one blurry girl is standing up with black shirt visible,H,1,1,MSR-VTT-videoTestVideo_video9044-shot0_1,Images/MSR-VTT-videoTestVideo_video9044-shot0_1/img57.jpg,Images/MSR-VTT-videoTestVideo_video9044-shot0_1/img62.jpg,Images/MSR-VTT-videoTestVideo_video9044-shot0_1/img72.jpg,Images/MSR-VTT-videoTestVideo_video9044-shot0_1/img74.jpg,Images/MSR-VTT-videoTestVideo_video9044-shot0_1/img78.jpg,Images/MSR-VTT-videoTestVideo_video9044-shot0_1/img83.jpg,Images/MSR-VTT-videoTestVideo_video9044-shot0_1/img85.jpg,Images/MSR-VTT-videoTestVideo_video9044-shot0_1/img88.jpg,Images/MSR-VTT-videoTestVideo_video9044-shot0_1/img93.jpg,Images/MSR-VTT-videoTestVideo_video9044-shot0_1/img97.jpg,1996,32,0,2022-06-16_01h17.25.469,annotation,2021.2.3,Win32,60.0024001,,
,,,,,,,,,,,,,,,,,0.540364583,-0.130208333,1,0,0,image_9,0,44,44,10,1,1935,A man is standing in front of a door.,M,1,5,MSR-VTT-videoTestVideo_video9236-shot1_0,Images/MSR-VTT-videoTestVideo_video9236-shot1_0/img0.jpg,Images/MSR-VTT-videoTestVideo_video9236-shot1_0/img5.jpg,Images/MSR-VTT-videoTestVideo_video9236-shot1_0/img12.jpg,Images/MSR-VTT-videoTestVideo_video9236-shot1_0/img14.jpg,Images/MSR-VTT-videoTestVideo_video9236-shot1_0/img19.jpg,Images/MSR-VTT-videoTestVideo_video9236-shot1_0/img24.jpg,Images/MSR-VTT-videoTestVideo_video9236-shot1_0/img28.jpg,Images/MSR-VTT-videoTestVideo_video9236-shot1_0/img33.jpg,Images/MSR-VTT-videoTestVideo_video9236-shot1_0/img41.jpg,Images/MSR-VTT-videoTestVideo_video9236-shot1_0/img56.jpg,901,32,0,2022-06-16_01h17.25.469,annotation,2021.2.3,Win32,60.0024001,,
,,,,,,,,,,,,,,,,,0.227864583,-0.1484375,1,0,0,image_8,0,45,45,19,1,1685,A group of people standing next to each other.,M,0,2,MSR-VTT-videoTestVideo_video7030-shot1_0,Images/MSR-VTT-videoTestVideo_video7030-shot1_0/img0.jpg,Images/MSR-VTT-videoTestVideo_video7030-shot1_0/img13.jpg,Images/MSR-VTT-videoTestVideo_video7030-shot1_0/img19.jpg,Images/MSR-VTT-videoTestVideo_video7030-shot1_0/img34.jpg,Images/MSR-VTT-videoTestVideo_video7030-shot1_0/img62.jpg,Images/MSR-VTT-videoTestVideo_video7030-shot1_0/img91.jpg,Images/MSR-VTT-videoTestVideo_video7030-shot1_0/img99.jpg,Images/MSR-VTT-videoTestVideo_video7030-shot1_0/img106.jpg,Images/MSR-VTT-videoTestVideo_video7030-shot1_0/img157.jpg,Images/MSR-VTT-videoTestVideo_video7030-shot1_0/img183.jpg,1109,32,0,2022-06-16_01h17.25.469,annotation,2021.2.3,Win32,60.0024001,,
,,,,,,,,,,,,,,,,,-0.197916667,-0.1484375,1,0,0,image_6,0,46,46,41,1,1029,Freddy's hand is visible bursting through the chest of a person with two outstretched fingers.,H,0,4,MSR-VTT-videoTestVideo_video9400-shot1_0,Images/MSR-VTT-videoTestVideo_video9400-shot1_0/img0.jpg,Images/MSR-VTT-videoTestVideo_video9400-shot1_0/img1.jpg,Images/MSR-VTT-videoTestVideo_video9400-shot1_0/img4.jpg,Images/MSR-VTT-videoTestVideo_video9400-shot1_0/img6.jpg,Images/MSR-VTT-videoTestVideo_video9400-shot1_0/img13.jpg,Images/MSR-VTT-videoTestVideo_video9400-shot1_0/img16.jpg,Images/MSR-VTT-videoTestVideo_video9400-shot1_0/img19.jpg,Images/MSR-VTT-videoTestVideo_video9400-shot1_0/img20.jpg,Images/MSR-VTT-videoTestVideo_video9400-shot1_0/img26.jpg,Images/MSR-VTT-videoTestVideo_video9400-shot1_0/img32.jpg,1292,32,0,2022-06-16_01h17.25.469,annotation,2021.2.3,Win32,60.0024001,,
,,,,,,,,,,,,,,,,,-0.540364583,0.14453125,1,0,0,image_0,0,47,47,8,1,1659,A young girl holding a baseball bat in a grassy field.,M,0,6,MSR-VTT-videoTestVideo_video7542-shot9_0,Images/MSR-VTT-videoTestVideo_video7542-shot9_0/img0.jpg,Images/MSR-VTT-videoTestVideo_video7542-shot9_0/img5.jpg,Images/MSR-VTT-videoTestVideo_video7542-shot9_0/img11.jpg,Images/MSR-VTT-videoTestVideo_video7542-shot9_0/img16.jpg,Images/MSR-VTT-videoTestVideo_video7542-shot9_0/img32.jpg,Images/MSR-VTT-videoTestVideo_video7542-shot9_0/img45.jpg,Images/MSR-VTT-videoTestVideo_video7542-shot9_0/img48.jpg,Images/MSR-VTT-videoTestVideo_video7542-shot9_0/img52.jpg,Images/MSR-VTT-videoTestVideo_video7542-shot9_0/img65.jpg,Images/MSR-VTT-videoTestVideo_video7542-shot9_0/img70.jpg,1985,32,0,2022-06-16_01h17.25.469,annotation,2021.2.3,Win32,60.0024001,,
,,,,,,,,,,,,,,,,,0.432291667,-0.110677083,1,0,0,image_9,0,48,48,60,1,2,Green type writer with a red tape. ,H,,9,open-images-531_0dd4eb59d465a8be,Checks/check3/open-images-503_1ccd6fa641154ebbimg7.jpg,Checks/check3/open-images-1852_00faf52058ad28b8img4.jpg,Checks/check3/open-images-386_1b2e28d6d994603eimg1.jpg,Checks/check3/open-images-471_1121e9f97c200ac0img8.jpg,Checks/check3/open-images-1886_3db71eaddb618934img8.jpg,Checks/check3/open-images-1696_20a4ebf0c0f76b05img6.jpg,Checks/check3/open-images-2447_128483a48e1552f4img6.jpg,Checks/check3/open-images-2994_9965cbf8aa20bda0img2.jpg,Checks/check3/open-images-1068_03d63613107970b3img6.jpg,Checks/check3/open-images-531_0dd4eb59d465a8beimg9.jpg,,,1,2022-06-16_01h17.25.469,annotation,2021.2.3,Win32,60.0024001,,
,,,,,,,,,,,,,,,,,-0.46484375,0.102864583,1,0,0,image_0,0,49,49,32,1,1624,A woman is cooking some food on a grill.,M,0,6,YouCook-video0016-shot15_1,Images/YouCook-video0016-shot15_1/img111.jpg,Images/YouCook-video0016-shot15_1/img118.jpg,Images/YouCook-video0016-shot15_1/img126.jpg,Images/YouCook-video0016-shot15_1/img146.jpg,Images/YouCook-video0016-shot15_1/img230.jpg,Images/YouCook-video0016-shot15_1/img273.jpg,Images/YouCook-video0016-shot15_1/img282.jpg,Images/YouCook-video0016-shot15_1/img295.jpg,Images/YouCook-video0016-shot15_1/img307.jpg,Images/YouCook-video0016-shot15_1/img391.jpg,1235,32,0,2022-06-16_01h17.25.469,annotation,2021.2.3,Win32,60.0024001,,
,,,,,,,,,,,,,,,,,0.505208333,0.12890625,1,0,0,image_4,0,50,50,7,1,185,"The white shape is straight with purple at the top, it's arms are bent out to the side.",H,0,4,MSR-VTT-videoTestVideo_video9274-shot2_0,Images/MSR-VTT-videoTestVideo_video9274-shot2_0/img0.jpg,Images/MSR-VTT-videoTestVideo_video9274-shot2_0/img2.jpg,Images/MSR-VTT-videoTestVideo_video9274-shot2_0/img5.jpg,Images/MSR-VTT-videoTestVideo_video9274-shot2_0/img8.jpg,Images/MSR-VTT-videoTestVideo_video9274-shot2_0/img9.jpg,Images/MSR-VTT-videoTestVideo_video9274-shot2_0/img11.jpg,Images/MSR-VTT-videoTestVideo_video9274-shot2_0/img13.jpg,Images/MSR-VTT-videoTestVideo_video9274-shot2_0/img19.jpg,Images/MSR-VTT-videoTestVideo_video9274-shot2_0/img24.jpg,Images/MSR-VTT-videoTestVideo_video9274-shot2_0/img26.jpg,303,32,0,2022-06-16_01h17.25.469,annotation,2021.2.3,Win32,60.0024001,,
,,,,,,,,,,,,,,,,,-0.4765625,0.127604167,1,0,0,image_0,0,51,51,13,1,1737,A car that is driving down the street.,M,0,1,MSR-VTT-videoTestVideo_video8560-shot1_3,Images/MSR-VTT-videoTestVideo_video8560-shot1_3/img252.jpg,Images/MSR-VTT-videoTestVideo_video8560-shot1_3/img256.jpg,Images/MSR-VTT-videoTestVideo_video8560-shot1_3/img265.jpg,Images/MSR-VTT-videoTestVideo_video8560-shot1_3/img268.jpg,Images/MSR-VTT-videoTestVideo_video8560-shot1_3/img275.jpg,Images/MSR-VTT-videoTestVideo_video8560-shot1_3/img281.jpg,Images/MSR-VTT-videoTestVideo_video8560-shot1_3/img287.jpg,Images/MSR-VTT-videoTestVideo_video8560-shot1_3/img298.jpg,Images/MSR-VTT-videoTestVideo_video8560-shot1_3/img302.jpg,Images/MSR-VTT-videoTestVideo_video8560-shot1_3/img311.jpg,1994,32,0,2022-06-16_01h17.25.469,annotation,2021.2.3,Win32,60.0024001,,
,,,,,,,,,,,,,,,,,-0.266927083,0.135416667,1,0,0,image_1,0,52,52,62,1,4,A penguin holding a piece of paper with text on it. ,H,,1,open-images-2521_074d6af730ed17a6,Checks/check5/open-images-509_4d8bd994cb8c6eaeimg0.jpg,Checks/check5/open-images-2521_074d6af730ed17a6img1.jpg,Checks/check5/open-images-1365_a00a5fde334ae45aimg4.jpg,Checks/check5/open-images-1602_44092afdeab39e73img6.jpg,Checks/check5/open-images-1032_059f3cdfb85ee0ceimg3.jpg,Checks/check5/open-images-727_25b77fff36adba66img2.jpg,Checks/check5/open-images-2208_0fb92b9978d98575img2.jpg,Checks/check5/open-images-1305_05769e6abb16fdc8img9.jpg,Checks/check5/open-images-2676_052dbf7b4899430bimg1.jpg,Checks/check5/open-images-2569_1e81d79bb796a2dbimg7.jpg,,,1,2022-06-16_01h17.25.469,annotation,2021.2.3,Win32,60.0024001,,
,,,,,,,,,,,,,,,,,0.509114583,-0.190104167,1,0,0,image_9,0,53,53,20,1,1495,A plate with a doughnut on top of it.,M,0,9,MSR-VTT-videoTestVideo_video7973-shot3_0,Images/MSR-VTT-videoTestVideo_video7973-shot3_0/img0.jpg,Images/MSR-VTT-videoTestVideo_video7973-shot3_0/img16.jpg,Images/MSR-VTT-videoTestVideo_video7973-shot3_0/img17.jpg,Images/MSR-VTT-videoTestVideo_video7973-shot3_0/img20.jpg,Images/MSR-VTT-videoTestVideo_video7973-shot3_0/img23.jpg,Images/MSR-VTT-videoTestVideo_video7973-shot3_0/img27.jpg,Images/MSR-VTT-videoTestVideo_video7973-shot3_0/img35.jpg,Images/MSR-VTT-videoTestVideo_video7973-shot3_0/img42.jpg,Images/MSR-VTT-videoTestVideo_video7973-shot3_0/img49.jpg,Images/MSR-VTT-videoTestVideo_video7973-shot3_0/img77.jpg,1837,32,0,2022-06-16_01h17.25.469,annotation,2021.2.3,Win32,60.0024001,,
,,,,,,,,,,,,,,,,,0.036458333,0.123697917,1,0,0,image_2,0,54,54,47,1,625,On the very small plate at the top left a yellowish cucumberlike vegetable is most fully visible.,H,0,1,MSR-VTT-videoTestVideo_video9983-shot1_0,Images/MSR-VTT-videoTestVideo_video9983-shot1_0/img0.jpg,Images/MSR-VTT-videoTestVideo_video9983-shot1_0/img363.jpg,Images/MSR-VTT-videoTestVideo_video9983-shot1_0/img465.jpg,Images/MSR-VTT-videoTestVideo_video9983-shot1_0/img466.jpg,Images/MSR-VTT-videoTestVideo_video9983-shot1_0/img467.jpg,Images/MSR-VTT-videoTestVideo_video9983-shot1_0/img469.jpg,Images/MSR-VTT-videoTestVideo_video9983-shot1_0/img489.jpg,Images/MSR-VTT-videoTestVideo_video9983-shot1_0/img494.jpg,Images/MSR-VTT-videoTestVideo_video9983-shot1_0/img527.jpg,Images/MSR-VTT-videoTestVideo_video9983-shot1_0/img579.jpg,1143,32,0,2022-06-16_01h17.25.469,annotation,2021.2.3,Win32,60.0024001,,
,,,,,,,,,,,,,,,,,0.255208333,0.162760417,1,0,0,image_3,0,55,55,22,1,129,The surfer has just disappeared over the wave.  The text is complete at the bottom. ,H,0,2,MSR-VTT-videoTestVideo_video9088-shot1_1,Images/MSR-VTT-videoTestVideo_video9088-shot1_1/img209.jpg,Images/MSR-VTT-videoTestVideo_video9088-shot1_1/img219.jpg,Images/MSR-VTT-videoTestVideo_video9088-shot1_1/img278.jpg,Images/MSR-VTT-videoTestVideo_video9088-shot1_1/img320.jpg,Images/MSR-VTT-videoTestVideo_video9088-shot1_1/img324.jpg,Images/MSR-VTT-videoTestVideo_video9088-shot1_1/img327.jpg,Images/MSR-VTT-videoTestVideo_video9088-shot1_1/img329.jpg,Images/MSR-VTT-videoTestVideo_video9088-shot1_1/img349.jpg,Images/MSR-VTT-videoTestVideo_video9088-shot1_1/img357.jpg,Images/MSR-VTT-videoTestVideo_video9088-shot1_1/img395.jpg,1134,32,0,2022-06-16_01h17.25.469,annotation,2021.2.3,Win32,60.0024001,,
,,,,,,,,,,,,,,,,,0.01953125,0.13671875,1,0,0,image_2,0,56,56,35,1,1851,A horse that is standing in the middle of a room.,M,1,8,MSR-VTT-videoTestVideo_video9415-shot1_8,Images/MSR-VTT-videoTestVideo_video9415-shot1_8/img262.jpg,Images/MSR-VTT-videoTestVideo_video9415-shot1_8/img264.jpg,Images/MSR-VTT-videoTestVideo_video9415-shot1_8/img267.jpg,Images/MSR-VTT-videoTestVideo_video9415-shot1_8/img268.jpg,Images/MSR-VTT-videoTestVideo_video9415-shot1_8/img270.jpg,Images/MSR-VTT-videoTestVideo_video9415-shot1_8/img271.jpg,Images/MSR-VTT-videoTestVideo_video9415-shot1_8/img273.jpg,Images/MSR-VTT-videoTestVideo_video9415-shot1_8/img274.jpg,Images/MSR-VTT-videoTestVideo_video9415-shot1_8/img278.jpg,Images/MSR-VTT-videoTestVideo_video9415-shot1_8/img285.jpg,780,32,0,2022-06-16_01h17.25.469,annotation,2021.2.3,Win32,60.0024001,,
,,,,,,,,,,,,,,,,,-0.438802083,-0.177083333,1,0,0,image_5,0,57,57,53,1,752,Only the back of the head and part of her shoulders is visible of the woman in blue behind the person in the grey top,H,0,6,MSR-VTT-videoTestVideo_video7725-shot2_6,Images/MSR-VTT-videoTestVideo_video7725-shot2_6/img192.jpg,Images/MSR-VTT-videoTestVideo_video7725-shot2_6/img198.jpg,Images/MSR-VTT-videoTestVideo_video7725-shot2_6/img201.jpg,Images/MSR-VTT-videoTestVideo_video7725-shot2_6/img205.jpg,Images/MSR-VTT-videoTestVideo_video7725-shot2_6/img217.jpg,Images/MSR-VTT-videoTestVideo_video7725-shot2_6/img222.jpg,Images/MSR-VTT-videoTestVideo_video7725-shot2_6/img225.jpg,Images/MSR-VTT-videoTestVideo_video7725-shot2_6/img226.jpg,Images/MSR-VTT-videoTestVideo_video7725-shot2_6/img232.jpg,Images/MSR-VTT-videoTestVideo_video7725-shot2_6/img236.jpg,839,32,0,2022-06-16_01h17.25.469,annotation,2021.2.3,Win32,60.0024001,,
,,,,,,,,,,,,,,,,,-0.252604167,-0.170572917,1,0,0,image_6,0,58,58,1,1,410,All but the left side of the image is blocked by an object in the foreground,H,1,0,MSR-VTT-videoTestVideo_video9600-shot3_0,Images/MSR-VTT-videoTestVideo_video9600-shot3_0/img0.jpg,Images/MSR-VTT-videoTestVideo_video9600-shot3_0/img5.jpg,Images/MSR-VTT-videoTestVideo_video9600-shot3_0/img6.jpg,Images/MSR-VTT-videoTestVideo_video9600-shot3_0/img7.jpg,Images/MSR-VTT-videoTestVideo_video9600-shot3_0/img10.jpg,Images/MSR-VTT-videoTestVideo_video9600-shot3_0/img11.jpg,Images/MSR-VTT-videoTestVideo_video9600-shot3_0/img12.jpg,Images/MSR-VTT-videoTestVideo_video9600-shot3_0/img14.jpg,Images/MSR-VTT-videoTestVideo_video9600-shot3_0/img19.jpg,Images/MSR-VTT-videoTestVideo_video9600-shot3_0/img21.jpg,1401,32,0,2022-06-16_01h17.25.469,annotation,2021.2.3,Win32,60.0024001,,
,,,,,,,,,,,,,,,,,0.48046875,0.111979167,1,0,0,image_4,0,59,59,6,1,343,You can read the backwards text in black on the court with just the tip of the first letter off the bottom of the picture..  A person with a blue jersey is near the last latter,H,0,5,MSR-VTT-videoTestVideo_video7458-shot2_5,Images/MSR-VTT-videoTestVideo_video7458-shot2_5/img309.jpg,Images/MSR-VTT-videoTestVideo_video7458-shot2_5/img318.jpg,Images/MSR-VTT-videoTestVideo_video7458-shot2_5/img336.jpg,Images/MSR-VTT-videoTestVideo_video7458-shot2_5/img342.jpg,Images/MSR-VTT-videoTestVideo_video7458-shot2_5/img349.jpg,Images/MSR-VTT-videoTestVideo_video7458-shot2_5/img359.jpg,Images/MSR-VTT-videoTestVideo_video7458-shot2_5/img360.jpg,Images/MSR-VTT-videoTestVideo_video7458-shot2_5/img407.jpg,Images/MSR-VTT-videoTestVideo_video7458-shot2_5/img410.jpg,Images/MSR-VTT-videoTestVideo_video7458-shot2_5/img419.jpg,490,32,0,2022-06-16_01h17.25.469,annotation,2021.2.3,Win32,60.0024001,,
,,,,,,,,,,,,,,,,,0.05078125,0.166666667,1,0,0,image_2,0,60,60,12,1,683,The top part of the tail is cut of at the top of the picture but you can still see the bottom half of the tail. ,H,0,5,MSR-VTT-videoTestVideo_video9455-shot1_4,Images/MSR-VTT-videoTestVideo_video9455-shot1_4/img127.jpg,Images/MSR-VTT-videoTestVideo_video9455-shot1_4/img129.jpg,Images/MSR-VTT-videoTestVideo_video9455-shot1_4/img130.jpg,Images/MSR-VTT-videoTestVideo_video9455-shot1_4/img136.jpg,Images/MSR-VTT-videoTestVideo_video9455-shot1_4/img138.jpg,Images/MSR-VTT-videoTestVideo_video9455-shot1_4/img139.jpg,Images/MSR-VTT-videoTestVideo_video9455-shot1_4/img141.jpg,Images/MSR-VTT-videoTestVideo_video9455-shot1_4/img142.jpg,Images/MSR-VTT-videoTestVideo_video9455-shot1_4/img143.jpg,Images/MSR-VTT-videoTestVideo_video9455-shot1_4/img152.jpg,295,32,0,2022-06-16_01h17.25.469,annotation,2021.2.3,Win32,60.0024001,,
,,,,,,,,,,,,,,,,,0.001302083,0.127604167,1,0,0,image_2,0,61,61,23,1,1556,A couple of people standing on a wooden floor.,M,0,8,MSR-VTT-videoTestVideo_video7161-shot0_0,Images/MSR-VTT-videoTestVideo_video7161-shot0_0/img0.jpg,Images/MSR-VTT-videoTestVideo_video7161-shot0_0/img19.jpg,Images/MSR-VTT-videoTestVideo_video7161-shot0_0/img21.jpg,Images/MSR-VTT-videoTestVideo_video7161-shot0_0/img26.jpg,Images/MSR-VTT-videoTestVideo_video7161-shot0_0/img34.jpg,Images/MSR-VTT-videoTestVideo_video7161-shot0_0/img40.jpg,Images/MSR-VTT-videoTestVideo_video7161-shot0_0/img48.jpg,Images/MSR-VTT-videoTestVideo_video7161-shot0_0/img51.jpg,Images/MSR-VTT-videoTestVideo_video7161-shot0_0/img62.jpg,Images/MSR-VTT-videoTestVideo_video7161-shot0_0/img70.jpg,2034,32,0,2022-06-16_01h17.25.469,annotation,2021.2.3,Win32,60.0024001,,
,,,,,,,,,,,,,,,,,-0.2109375,0.154947917,1,0,0,image_1,0,62,62,56,1,1425,A man drinking from a glass of water.,M,0,6,MSR-VTT-videoTestVideo_video7726-shot3_0,Images/MSR-VTT-videoTestVideo_video7726-shot3_0/img1.jpg,Images/MSR-VTT-videoTestVideo_video7726-shot3_0/img4.jpg,Images/MSR-VTT-videoTestVideo_video7726-shot3_0/img6.jpg,Images/MSR-VTT-videoTestVideo_video7726-shot3_0/img9.jpg,Images/MSR-VTT-videoTestVideo_video7726-shot3_0/img11.jpg,Images/MSR-VTT-videoTestVideo_video7726-shot3_0/img16.jpg,Images/MSR-VTT-videoTestVideo_video7726-shot3_0/img21.jpg,Images/MSR-VTT-videoTestVideo_video7726-shot3_0/img34.jpg,Images/MSR-VTT-videoTestVideo_video7726-shot3_0/img46.jpg,Images/MSR-VTT-videoTestVideo_video7726-shot3_0/img48.jpg,511,32,0,2022-06-16_01h17.25.469,annotation,2021.2.3,Win32,60.0024001,,
,,,,,,,,,,,,,,,,,,,,,,,,,,,,,,,,,,,,,,,,,,,,,,,2022-06-16_01h17.25.469,annotation,2021.2.3,Win32,60.0024001,space,17.961
