mturk,key_resp_2.keys,key_resp_2.rt,key_resp_3.keys,key_resp_3.rt,mouse_2.x,mouse_2.y,mouse_2.leftButton,mouse_2.midButton,mouse_2.rightButton,mouse_2.clicked_name,key_resp_5.keys,key_resp_5.rt,key_resp.keys,key_resp.rt,key_resp_6.keys,key_resp_6.rt,mouse.x,mouse.y,mouse.leftButton,mouse.midButton,mouse.rightButton,mouse.clicked_name,trials.thisRepN,trials.thisTrialN,trials.thisN,trials.thisIndex,trials.ran,N,caption,class_caption,model_guessed,target_idx,image_set,img1,img2,img3,img4,img5,img6,img7,img8,img9,img10,Q_id,block,is_check,date,expName,psychopyVersion,OS,frameRate
8409597,space,9.5169,space,27.5238,0.23046875,0.122395833,1,0,0,ex4,space,8.4874,space,54.958,space,1.4706,0.04296875,0.111979167,1,0,0,image_2,0,0,0,23,1,1484,A group of people walking down a runway.,M,0,1,MSR-VTT-videoTestVideo_video9289-shot1_0,Images/MSR-VTT-videoTestVideo_video9289-shot1_0/img0.jpg,Images/MSR-VTT-videoTestVideo_video9289-shot1_0/img9.jpg,Images/MSR-VTT-videoTestVideo_video9289-shot1_0/img15.jpg,Images/MSR-VTT-videoTestVideo_video9289-shot1_0/img17.jpg,Images/MSR-VTT-videoTestVideo_video9289-shot1_0/img30.jpg,Images/MSR-VTT-videoTestVideo_video9289-shot1_0/img37.jpg,Images/MSR-VTT-videoTestVideo_video9289-shot1_0/img43.jpg,Images/MSR-VTT-videoTestVideo_video9289-shot1_0/img54.jpg,Images/MSR-VTT-videoTestVideo_video9289-shot1_0/img62.jpg,Images/MSR-VTT-videoTestVideo_video9289-shot1_0/img69.jpg,1565,10,0,2022-06-15_10h46.21.965,annotation,2021.2.3,Win32,59.90534955
,,,,,,,,,,,,,,,,,0.520833333,-0.162760417,1,0,0,image_9,0,1,1,60,1,2,Green type writer with a red tape. ,H,,9,open-images-531_0dd4eb59d465a8be,Checks/check3/open-images-503_1ccd6fa641154ebbimg7.jpg,Checks/check3/open-images-1852_00faf52058ad28b8img4.jpg,Checks/check3/open-images-386_1b2e28d6d994603eimg1.jpg,Checks/check3/open-images-471_1121e9f97c200ac0img8.jpg,Checks/check3/open-images-1886_3db71eaddb618934img8.jpg,Checks/check3/open-images-1696_20a4ebf0c0f76b05img6.jpg,Checks/check3/open-images-2447_128483a48e1552f4img6.jpg,Checks/check3/open-images-2994_9965cbf8aa20bda0img2.jpg,Checks/check3/open-images-1068_03d63613107970b3img6.jpg,Checks/check3/open-images-531_0dd4eb59d465a8beimg9.jpg,,,1,2022-06-15_10h46.21.965,annotation,2021.2.3,Win32,59.90534955
,,,,,,,,,,,,,,,,,-0.001302083,0.153645833,1,0,0,image_2,0,2,2,52,1,331,Half of the white circle on the back of the car is visible. ,H,0,2,MSR-VTT-videoTestVideo_video9668-shot1_1,Images/MSR-VTT-videoTestVideo_video9668-shot1_1/img45.jpg,Images/MSR-VTT-videoTestVideo_video9668-shot1_1/img47.jpg,Images/MSR-VTT-videoTestVideo_video9668-shot1_1/img53.jpg,Images/MSR-VTT-videoTestVideo_video9668-shot1_1/img55.jpg,Images/MSR-VTT-videoTestVideo_video9668-shot1_1/img60.jpg,Images/MSR-VTT-videoTestVideo_video9668-shot1_1/img65.jpg,Images/MSR-VTT-videoTestVideo_video9668-shot1_1/img67.jpg,Images/MSR-VTT-videoTestVideo_video9668-shot1_1/img75.jpg,Images/MSR-VTT-videoTestVideo_video9668-shot1_1/img84.jpg,Images/MSR-VTT-videoTestVideo_video9668-shot1_1/img93.jpg,637,10,0,2022-06-15_10h46.21.965,annotation,2021.2.3,Win32,59.90534955
,,,,,,,,,,,,,,,,,0.43359375,-0.170572917,1,0,0,image_9,0,3,3,41,1,955,There is no hand visible. The corner to the top right of the bowl is lit up a bit.,H,1,8,MSR-VTT-videoTestVideo_video8853-shot1_1,Images/MSR-VTT-videoTestVideo_video8853-shot1_1/img151.jpg,Images/MSR-VTT-videoTestVideo_video8853-shot1_1/img163.jpg,Images/MSR-VTT-videoTestVideo_video8853-shot1_1/img165.jpg,Images/MSR-VTT-videoTestVideo_video8853-shot1_1/img173.jpg,Images/MSR-VTT-videoTestVideo_video8853-shot1_1/img189.jpg,Images/MSR-VTT-videoTestVideo_video8853-shot1_1/img207.jpg,Images/MSR-VTT-videoTestVideo_video8853-shot1_1/img215.jpg,Images/MSR-VTT-videoTestVideo_video8853-shot1_1/img250.jpg,Images/MSR-VTT-videoTestVideo_video8853-shot1_1/img286.jpg,Images/MSR-VTT-videoTestVideo_video8853-shot1_1/img305.jpg,472,10,0,2022-06-15_10h46.21.965,annotation,2021.2.3,Win32,59.90534955
,,,,,,,,,,,,,,,,,-0.40625,-0.1015625,1,0,0,image_5,0,4,4,1,1,1791,A child is standing next to a Mickey Mouse themed toy.,M,0,8,video-storytelling-videobirthday__amwPjAcoC8-shot34_0,Images/video-storytelling-videobirthday__amwPjAcoC8-shot34_0/img0.jpg,Images/video-storytelling-videobirthday__amwPjAcoC8-shot34_0/img2.jpg,Images/video-storytelling-videobirthday__amwPjAcoC8-shot34_0/img4.jpg,Images/video-storytelling-videobirthday__amwPjAcoC8-shot34_0/img9.jpg,Images/video-storytelling-videobirthday__amwPjAcoC8-shot34_0/img12.jpg,Images/video-storytelling-videobirthday__amwPjAcoC8-shot34_0/img14.jpg,Images/video-storytelling-videobirthday__amwPjAcoC8-shot34_0/img19.jpg,Images/video-storytelling-videobirthday__amwPjAcoC8-shot34_0/img28.jpg,Images/video-storytelling-videobirthday__amwPjAcoC8-shot34_0/img36.jpg,Images/video-storytelling-videobirthday__amwPjAcoC8-shot34_0/img40.jpg,1751,10,0,2022-06-15_10h46.21.965,annotation,2021.2.3,Win32,59.90534955
,,,,,,,,,,,,,,,,,0.475260417,0.091145833,1,0,0,image_4,0,5,5,15,1,1962,a close up of a bowl of food on a table.,M,0,8,MSR-VTT-videoTestVideo_video8776-shot1_0,Images/MSR-VTT-videoTestVideo_video8776-shot1_0/img0.jpg,Images/MSR-VTT-videoTestVideo_video8776-shot1_0/img9.jpg,Images/MSR-VTT-videoTestVideo_video8776-shot1_0/img11.jpg,Images/MSR-VTT-videoTestVideo_video8776-shot1_0/img12.jpg,Images/MSR-VTT-videoTestVideo_video8776-shot1_0/img18.jpg,Images/MSR-VTT-videoTestVideo_video8776-shot1_0/img23.jpg,Images/MSR-VTT-videoTestVideo_video8776-shot1_0/img25.jpg,Images/MSR-VTT-videoTestVideo_video8776-shot1_0/img28.jpg,Images/MSR-VTT-videoTestVideo_video8776-shot1_0/img32.jpg,Images/MSR-VTT-videoTestVideo_video8776-shot1_0/img166.jpg,814,10,0,2022-06-15_10h46.21.965,annotation,2021.2.3,Win32,59.90534955
,,,,,,,,,,,,,,,,,0.423177083,-0.151041667,1,0,0,image_9,0,6,6,46,1,1651,A woman sitting on a bench with a drink in her hand.,M,0,3,video-storytelling-videocamping_1OzbiB1TIWI-shot17_3,Images/video-storytelling-videocamping_1OzbiB1TIWI-shot17_3/img147.jpg,Images/video-storytelling-videocamping_1OzbiB1TIWI-shot17_3/img148.jpg,Images/video-storytelling-videocamping_1OzbiB1TIWI-shot17_3/img149.jpg,Images/video-storytelling-videocamping_1OzbiB1TIWI-shot17_3/img152.jpg,Images/video-storytelling-videocamping_1OzbiB1TIWI-shot17_3/img153.jpg,Images/video-storytelling-videocamping_1OzbiB1TIWI-shot17_3/img156.jpg,Images/video-storytelling-videocamping_1OzbiB1TIWI-shot17_3/img157.jpg,Images/video-storytelling-videocamping_1OzbiB1TIWI-shot17_3/img159.jpg,Images/video-storytelling-videocamping_1OzbiB1TIWI-shot17_3/img161.jpg,Images/video-storytelling-videocamping_1OzbiB1TIWI-shot17_3/img166.jpg,1301,10,0,2022-06-15_10h46.21.965,annotation,2021.2.3,Win32,59.90534955
,,,,,,,,,,,,,,,,,0.20703125,0.092447917,1,0,0,image_3,0,7,7,42,1,1959,A man holding a cell phone in his hand.,M,1,7,MSR-VTT-videoTestVideo_video9389-shot1_0,Images/MSR-VTT-videoTestVideo_video9389-shot1_0/img0.jpg,Images/MSR-VTT-videoTestVideo_video9389-shot1_0/img52.jpg,Images/MSR-VTT-videoTestVideo_video9389-shot1_0/img102.jpg,Images/MSR-VTT-videoTestVideo_video9389-shot1_0/img108.jpg,Images/MSR-VTT-videoTestVideo_video9389-shot1_0/img129.jpg,Images/MSR-VTT-videoTestVideo_video9389-shot1_0/img151.jpg,Images/MSR-VTT-videoTestVideo_video9389-shot1_0/img154.jpg,Images/MSR-VTT-videoTestVideo_video9389-shot1_0/img160.jpg,Images/MSR-VTT-videoTestVideo_video9389-shot1_0/img169.jpg,Images/MSR-VTT-videoTestVideo_video9389-shot1_0/img173.jpg,1240,10,0,2022-06-15_10h46.21.965,annotation,2021.2.3,Win32,59.90534955
,,,,,,,,,,,,,,,,,0.497395833,-0.12890625,1,0,0,image_9,0,8,8,5,1,420,There's an explosion or fire. The men in front are bent at the waist and toppling over. The man on the right in the background is leaning to the right. There isn't a blur.,H,1,9,MSR-VTT-videoTestVideo_video8547-shot1_1,Images/MSR-VTT-videoTestVideo_video8547-shot1_1/img35.jpg,Images/MSR-VTT-videoTestVideo_video8547-shot1_1/img41.jpg,Images/MSR-VTT-videoTestVideo_video8547-shot1_1/img43.jpg,Images/MSR-VTT-videoTestVideo_video8547-shot1_1/img44.jpg,Images/MSR-VTT-videoTestVideo_video8547-shot1_1/img46.jpg,Images/MSR-VTT-videoTestVideo_video8547-shot1_1/img49.jpg,Images/MSR-VTT-videoTestVideo_video8547-shot1_1/img52.jpg,Images/MSR-VTT-videoTestVideo_video8547-shot1_1/img57.jpg,Images/MSR-VTT-videoTestVideo_video8547-shot1_1/img60.jpg,Images/MSR-VTT-videoTestVideo_video8547-shot1_1/img64.jpg,1777,10,0,2022-06-15_10h46.21.965,annotation,2021.2.3,Win32,59.90534955
,,,,,,,,,,,,,,,,,-0.450520833,0.141927083,1,0,0,image_0,0,9,9,20,1,666,The man's right eye is 40% visible.,H,0,0,MSR-VTT-videoTestVideo_video8125-shot1_0,Images/MSR-VTT-videoTestVideo_video8125-shot1_0/img0.jpg,Images/MSR-VTT-videoTestVideo_video8125-shot1_0/img2.jpg,Images/MSR-VTT-videoTestVideo_video8125-shot1_0/img4.jpg,Images/MSR-VTT-videoTestVideo_video8125-shot1_0/img6.jpg,Images/MSR-VTT-videoTestVideo_video8125-shot1_0/img7.jpg,Images/MSR-VTT-videoTestVideo_video8125-shot1_0/img9.jpg,Images/MSR-VTT-videoTestVideo_video8125-shot1_0/img10.jpg,Images/MSR-VTT-videoTestVideo_video8125-shot1_0/img12.jpg,Images/MSR-VTT-videoTestVideo_video8125-shot1_0/img17.jpg,Images/MSR-VTT-videoTestVideo_video8125-shot1_0/img21.jpg,157,10,0,2022-06-15_10h46.21.965,annotation,2021.2.3,Win32,59.90534955
,,,,,,,,,,,,,,,,,0.239583333,-0.169270833,1,0,0,image_8,0,10,10,2,1,549,The preacher's left hand is facing away from him palm out and up as his mouth is open.  The image is slightly blurry,H,1,6,video-storytelling-videowedding_Bp8t824h5NE-shot69_4,Images/video-storytelling-videowedding_Bp8t824h5NE-shot69_4/img1753.jpg,Images/video-storytelling-videowedding_Bp8t824h5NE-shot69_4/img1841.jpg,Images/video-storytelling-videowedding_Bp8t824h5NE-shot69_4/img1864.jpg,Images/video-storytelling-videowedding_Bp8t824h5NE-shot69_4/img1870.jpg,Images/video-storytelling-videowedding_Bp8t824h5NE-shot69_4/img1873.jpg,Images/video-storytelling-videowedding_Bp8t824h5NE-shot69_4/img1878.jpg,Images/video-storytelling-videowedding_Bp8t824h5NE-shot69_4/img1886.jpg,Images/video-storytelling-videowedding_Bp8t824h5NE-shot69_4/img1895.jpg,Images/video-storytelling-videowedding_Bp8t824h5NE-shot69_4/img1907.jpg,Images/video-storytelling-videowedding_Bp8t824h5NE-shot69_4/img2131.jpg,101,10,0,2022-06-15_10h46.21.965,annotation,2021.2.3,Win32,59.90534955
,,,,,,,,,,,,,,,,,-0.286458333,-0.16796875,1,0,0,image_6,0,11,11,18,1,1044,A picture of clothes and wires on a wire fence.,M,0,7,MSR-VTT-videoTestVideo_video7047-shot1_0,Images/MSR-VTT-videoTestVideo_video7047-shot1_0/img0.jpg,Images/MSR-VTT-videoTestVideo_video7047-shot1_0/img1.jpg,Images/MSR-VTT-videoTestVideo_video7047-shot1_0/img27.jpg,Images/MSR-VTT-videoTestVideo_video7047-shot1_0/img32.jpg,Images/MSR-VTT-videoTestVideo_video7047-shot1_0/img33.jpg,Images/MSR-VTT-videoTestVideo_video7047-shot1_0/img39.jpg,Images/MSR-VTT-videoTestVideo_video7047-shot1_0/img82.jpg,Images/MSR-VTT-videoTestVideo_video7047-shot1_0/img112.jpg,Images/MSR-VTT-videoTestVideo_video7047-shot1_0/img113.jpg,Images/MSR-VTT-videoTestVideo_video7047-shot1_0/img123.jpg,1570,10,0,2022-06-15_10h46.21.965,annotation,2021.2.3,Win32,59.90534955
,,,,,,,,,,,,,,,,,-0.46875,0.13671875,1,0,0,image_0,0,12,12,26,1,1584,A child is playing with a toy dog on a table.,M,0,3,video-storytelling-videobirthday__amwPjAcoC8-shot34_1,Images/video-storytelling-videobirthday__amwPjAcoC8-shot34_1/img41.jpg,Images/video-storytelling-videobirthday__amwPjAcoC8-shot34_1/img47.jpg,Images/video-storytelling-videobirthday__amwPjAcoC8-shot34_1/img51.jpg,Images/video-storytelling-videobirthday__amwPjAcoC8-shot34_1/img56.jpg,Images/video-storytelling-videobirthday__amwPjAcoC8-shot34_1/img65.jpg,Images/video-storytelling-videobirthday__amwPjAcoC8-shot34_1/img70.jpg,Images/video-storytelling-videobirthday__amwPjAcoC8-shot34_1/img72.jpg,Images/video-storytelling-videobirthday__amwPjAcoC8-shot34_1/img80.jpg,Images/video-storytelling-videobirthday__amwPjAcoC8-shot34_1/img82.jpg,Images/video-storytelling-videobirthday__amwPjAcoC8-shot34_1/img87.jpg,386,10,0,2022-06-15_10h46.21.965,annotation,2021.2.3,Win32,59.90534955
,,,,,,,,,,,,,,,,,-0.243489583,-0.171875,1,0,0,image_6,0,13,13,47,1,289,"The fingers of both hands are touching the red car in the middle, the car is visible you can see the eyes on it. ",H,0,6,MSR-VTT-videoTestVideo_video9161-shot1_0,Images/MSR-VTT-videoTestVideo_video9161-shot1_0/img0.jpg,Images/MSR-VTT-videoTestVideo_video9161-shot1_0/img10.jpg,Images/MSR-VTT-videoTestVideo_video9161-shot1_0/img30.jpg,Images/MSR-VTT-videoTestVideo_video9161-shot1_0/img83.jpg,Images/MSR-VTT-videoTestVideo_video9161-shot1_0/img87.jpg,Images/MSR-VTT-videoTestVideo_video9161-shot1_0/img90.jpg,Images/MSR-VTT-videoTestVideo_video9161-shot1_0/img95.jpg,Images/MSR-VTT-videoTestVideo_video9161-shot1_0/img105.jpg,Images/MSR-VTT-videoTestVideo_video9161-shot1_0/img111.jpg,Images/MSR-VTT-videoTestVideo_video9161-shot1_0/img114.jpg,1384,10,0,2022-06-15_10h46.21.965,annotation,2021.2.3,Win32,59.90534955
,,,,,,,,,,,,,,,,,0.217447917,-0.130208333,1,0,0,image_8,0,14,14,21,1,1415,A close up of a kitchen utensil with a carrot on top of it.,M,0,2,MSR-VTT-videoTestVideo_video9267-shot3_0,Images/MSR-VTT-videoTestVideo_video9267-shot3_0/img0.jpg,Images/MSR-VTT-videoTestVideo_video9267-shot3_0/img6.jpg,Images/MSR-VTT-videoTestVideo_video9267-shot3_0/img12.jpg,Images/MSR-VTT-videoTestVideo_video9267-shot3_0/img13.jpg,Images/MSR-VTT-videoTestVideo_video9267-shot3_0/img14.jpg,Images/MSR-VTT-videoTestVideo_video9267-shot3_0/img17.jpg,Images/MSR-VTT-videoTestVideo_video9267-shot3_0/img19.jpg,Images/MSR-VTT-videoTestVideo_video9267-shot3_0/img23.jpg,Images/MSR-VTT-videoTestVideo_video9267-shot3_0/img24.jpg,Images/MSR-VTT-videoTestVideo_video9267-shot3_0/img26.jpg,880,10,0,2022-06-15_10h46.21.965,annotation,2021.2.3,Win32,59.90534955
,,,,,,,,,,,,,,,,,0.28125,-0.20703125,1,0,0,image_8,0,15,15,6,1,1483,A group of people standing in a room.,M,0,7,MSR-VTT-videoTestVideo_video7109-shot1_0,Images/MSR-VTT-videoTestVideo_video7109-shot1_0/img0.jpg,Images/MSR-VTT-videoTestVideo_video7109-shot1_0/img1.jpg,Images/MSR-VTT-videoTestVideo_video7109-shot1_0/img3.jpg,Images/MSR-VTT-videoTestVideo_video7109-shot1_0/img4.jpg,Images/MSR-VTT-videoTestVideo_video7109-shot1_0/img5.jpg,Images/MSR-VTT-videoTestVideo_video7109-shot1_0/img9.jpg,Images/MSR-VTT-videoTestVideo_video7109-shot1_0/img13.jpg,Images/MSR-VTT-videoTestVideo_video7109-shot1_0/img18.jpg,Images/MSR-VTT-videoTestVideo_video7109-shot1_0/img24.jpg,Images/MSR-VTT-videoTestVideo_video7109-shot1_0/img26.jpg,1705,10,0,2022-06-15_10h46.21.965,annotation,2021.2.3,Win32,59.90534955
,,,,,,,,,,,,,,,,,-0.291666667,-0.188802083,1,0,0,image_6,0,16,16,30,1,714,No stoplights or crosswalk signals are seen. There is a object on the left side of the road with an arrow on top of it that is right alongside the car in front. ,H,0,4,video-storytelling-videobirthday_fwpYnUDbusw-shot29_0,Images/video-storytelling-videobirthday_fwpYnUDbusw-shot29_0/img0.jpg,Images/video-storytelling-videobirthday_fwpYnUDbusw-shot29_0/img1.jpg,Images/video-storytelling-videobirthday_fwpYnUDbusw-shot29_0/img3.jpg,Images/video-storytelling-videobirthday_fwpYnUDbusw-shot29_0/img4.jpg,Images/video-storytelling-videobirthday_fwpYnUDbusw-shot29_0/img5.jpg,Images/video-storytelling-videobirthday_fwpYnUDbusw-shot29_0/img6.jpg,Images/video-storytelling-videobirthday_fwpYnUDbusw-shot29_0/img10.jpg,Images/video-storytelling-videobirthday_fwpYnUDbusw-shot29_0/img11.jpg,Images/video-storytelling-videobirthday_fwpYnUDbusw-shot29_0/img14.jpg,Images/video-storytelling-videobirthday_fwpYnUDbusw-shot29_0/img17.jpg,646,10,0,2022-06-15_10h46.21.965,annotation,2021.2.3,Win32,59.90534955
,,,,,,,,,,,,,,,,,-0.5078125,0.126302083,1,0,0,image_0,0,17,17,14,1,559,The girl in the army jacket is looking at the camera with the food item in her mouth.,H,0,6,video-storytelling-videocamping_1OzbiB1TIWI-shot14_6,Images/video-storytelling-videocamping_1OzbiB1TIWI-shot14_6/img922.jpg,Images/video-storytelling-videocamping_1OzbiB1TIWI-shot14_6/img930.jpg,Images/video-storytelling-videocamping_1OzbiB1TIWI-shot14_6/img932.jpg,Images/video-storytelling-videocamping_1OzbiB1TIWI-shot14_6/img943.jpg,Images/video-storytelling-videocamping_1OzbiB1TIWI-shot14_6/img949.jpg,Images/video-storytelling-videocamping_1OzbiB1TIWI-shot14_6/img955.jpg,Images/video-storytelling-videocamping_1OzbiB1TIWI-shot14_6/img958.jpg,Images/video-storytelling-videocamping_1OzbiB1TIWI-shot14_6/img967.jpg,Images/video-storytelling-videocamping_1OzbiB1TIWI-shot14_6/img969.jpg,Images/video-storytelling-videocamping_1OzbiB1TIWI-shot14_6/img973.jpg,1528,10,0,2022-06-15_10h46.21.965,annotation,2021.2.3,Win32,59.90534955
,,,,,,,,,,,,,,,,,0.509114583,-0.114583333,1,0,0,image_9,0,18,18,3,1,329,"The metal rim on the front wheel is mostly visible, revealing its circular shape.",H,0,9,MSR-VTT-videoTestVideo_video9996-shot1_3,Images/MSR-VTT-videoTestVideo_video9996-shot1_3/img163.jpg,Images/MSR-VTT-videoTestVideo_video9996-shot1_3/img168.jpg,Images/MSR-VTT-videoTestVideo_video9996-shot1_3/img171.jpg,Images/MSR-VTT-videoTestVideo_video9996-shot1_3/img174.jpg,Images/MSR-VTT-videoTestVideo_video9996-shot1_3/img178.jpg,Images/MSR-VTT-videoTestVideo_video9996-shot1_3/img183.jpg,Images/MSR-VTT-videoTestVideo_video9996-shot1_3/img194.jpg,Images/MSR-VTT-videoTestVideo_video9996-shot1_3/img209.jpg,Images/MSR-VTT-videoTestVideo_video9996-shot1_3/img219.jpg,Images/MSR-VTT-videoTestVideo_video9996-shot1_3/img222.jpg,1753,10,0,2022-06-15_10h46.21.965,annotation,2021.2.3,Win32,59.90534955
,,,,,,,,,,,,,,,,,0.462239583,-0.14453125,1,0,0,image_9,0,19,19,22,1,539,"The spoon is just right of center, and the convex side is facing to the right. ",H,1,2,YouCook-video0084-shot22_0,Images/YouCook-video0084-shot22_0/img0.jpg,Images/YouCook-video0084-shot22_0/img3.jpg,Images/YouCook-video0084-shot22_0/img5.jpg,Images/YouCook-video0084-shot22_0/img9.jpg,Images/YouCook-video0084-shot22_0/img18.jpg,Images/YouCook-video0084-shot22_0/img21.jpg,Images/YouCook-video0084-shot22_0/img24.jpg,Images/YouCook-video0084-shot22_0/img35.jpg,Images/YouCook-video0084-shot22_0/img38.jpg,Images/YouCook-video0084-shot22_0/img45.jpg,1853,10,0,2022-06-15_10h46.21.965,annotation,2021.2.3,Win32,59.90534955
,,,,,,,,,,,,,,,,,-0.53515625,-0.153645833,1,0,0,image_5,0,20,20,59,1,1,The only picture of a hawk.  It is looking to the left.  You see lots of branches and darker blue sky. ,H,,5,open-images-958_686caac9c5b322e7,Checks/check2/open-images-2603_1b5152f01f0093e7img3.jpg,Checks/check2/open-images-1836_069810916ce5d675img8.jpg,Checks/check2/open-images-974_0748fdedc4bf8b7bimg2.jpg,Checks/check2/open-images-617_01fb725fb1aa7b04img6.jpg,Checks/check2/open-images-507_047769e1f977cd97img2.jpg,Checks/check2/open-images-958_686caac9c5b322e7img5.jpg,Checks/check2/open-images-1278_21851d9bf5dc05c9img7.jpg,Checks/check2/open-images-2424_05f04546e01499f2img0.jpg,Checks/check2/open-images-1529_1442b11a10a6aeadimg3.jpg,Checks/check2/open-images-514_2c523ddedc2561d4img1.jpg,,,1,2022-06-15_10h46.21.965,annotation,2021.2.3,Win32,59.90534955
,,,,,,,,,,,,,,,,,0.516927083,0.122395833,1,0,0,image_4,0,21,21,24,1,1812,A couple of kids playing with a Frisbee in the yard.,M,0,5,MSR-VTT-videoTestVideo_video7599-shot1_0,Images/MSR-VTT-videoTestVideo_video7599-shot1_0/img0.jpg,Images/MSR-VTT-videoTestVideo_video7599-shot1_0/img4.jpg,Images/MSR-VTT-videoTestVideo_video7599-shot1_0/img26.jpg,Images/MSR-VTT-videoTestVideo_video7599-shot1_0/img47.jpg,Images/MSR-VTT-videoTestVideo_video7599-shot1_0/img136.jpg,Images/MSR-VTT-videoTestVideo_video7599-shot1_0/img208.jpg,Images/MSR-VTT-videoTestVideo_video7599-shot1_0/img250.jpg,Images/MSR-VTT-videoTestVideo_video7599-shot1_0/img277.jpg,Images/MSR-VTT-videoTestVideo_video7599-shot1_0/img291.jpg,Images/MSR-VTT-videoTestVideo_video7599-shot1_0/img301.jpg,83,10,0,2022-06-15_10h46.21.965,annotation,2021.2.3,Win32,59.90534955
,,,,,,,,,,,,,,,,,0.247395833,-0.151041667,1,0,0,image_8,0,22,22,45,1,880,A woman is seen with a slight closed smile and her eyes nearly closed ,H,0,8,video-storytelling-videocamping_dBXYM3dQTSo-shot10_0,Images/video-storytelling-videocamping_dBXYM3dQTSo-shot10_0/img0.jpg,Images/video-storytelling-videocamping_dBXYM3dQTSo-shot10_0/img2.jpg,Images/video-storytelling-videocamping_dBXYM3dQTSo-shot10_0/img17.jpg,Images/video-storytelling-videocamping_dBXYM3dQTSo-shot10_0/img100.jpg,Images/video-storytelling-videocamping_dBXYM3dQTSo-shot10_0/img120.jpg,Images/video-storytelling-videocamping_dBXYM3dQTSo-shot10_0/img245.jpg,Images/video-storytelling-videocamping_dBXYM3dQTSo-shot10_0/img250.jpg,Images/video-storytelling-videocamping_dBXYM3dQTSo-shot10_0/img254.jpg,Images/video-storytelling-videocamping_dBXYM3dQTSo-shot10_0/img262.jpg,Images/video-storytelling-videocamping_dBXYM3dQTSo-shot10_0/img266.jpg,1007,10,0,2022-06-15_10h46.21.965,annotation,2021.2.3,Win32,59.90534955
,,,,,,,,,,,,,,,,,-0.223958333,0.111979167,1,0,0,image_1,0,23,23,7,1,1421,A close up of a woman's hair with a cell phone.,M,0,3,MSR-VTT-videoTestVideo_video7456-shot1_0,Images/MSR-VTT-videoTestVideo_video7456-shot1_0/img0.jpg,Images/MSR-VTT-videoTestVideo_video7456-shot1_0/img8.jpg,Images/MSR-VTT-videoTestVideo_video7456-shot1_0/img33.jpg,Images/MSR-VTT-videoTestVideo_video7456-shot1_0/img39.jpg,Images/MSR-VTT-videoTestVideo_video7456-shot1_0/img56.jpg,Images/MSR-VTT-videoTestVideo_video7456-shot1_0/img67.jpg,Images/MSR-VTT-videoTestVideo_video7456-shot1_0/img81.jpg,Images/MSR-VTT-videoTestVideo_video7456-shot1_0/img84.jpg,Images/MSR-VTT-videoTestVideo_video7456-shot1_0/img92.jpg,Images/MSR-VTT-videoTestVideo_video7456-shot1_0/img96.jpg,790,10,0,2022-06-15_10h46.21.965,annotation,2021.2.3,Win32,59.90534955
,,,,,,,,,,,,,,,,,0.234375,0.098958333,1,0,0,image_3,0,24,24,49,1,1726,A woman sitting on a bench with a cell phone in her hand.,M,0,2,video-storytelling-videocamping_1OzbiB1TIWI-shot11_11,Images/video-storytelling-videocamping_1OzbiB1TIWI-shot11_11/img478.jpg,Images/video-storytelling-videocamping_1OzbiB1TIWI-shot11_11/img479.jpg,Images/video-storytelling-videocamping_1OzbiB1TIWI-shot11_11/img480.jpg,Images/video-storytelling-videocamping_1OzbiB1TIWI-shot11_11/img482.jpg,Images/video-storytelling-videocamping_1OzbiB1TIWI-shot11_11/img486.jpg,Images/video-storytelling-videocamping_1OzbiB1TIWI-shot11_11/img506.jpg,Images/video-storytelling-videocamping_1OzbiB1TIWI-shot11_11/img509.jpg,Images/video-storytelling-videocamping_1OzbiB1TIWI-shot11_11/img510.jpg,Images/video-storytelling-videocamping_1OzbiB1TIWI-shot11_11/img513.jpg,Images/video-storytelling-videocamping_1OzbiB1TIWI-shot11_11/img519.jpg,1317,10,0,2022-06-15_10h46.21.965,annotation,2021.2.3,Win32,59.90534955
,,,,,,,,,,,,,,,,,0.28125,-0.083333333,1,0,0,image_8,0,25,25,28,1,2,Two girls are shown. The girl in brown is turned more toward the girl in blue. The girl in blue is looking straight ahead.,H,0,9,MSR-VTT-videoTestVideo_video7047-shot1_0,Images/MSR-VTT-videoTestVideo_video7047-shot1_0/img0.jpg,Images/MSR-VTT-videoTestVideo_video7047-shot1_0/img1.jpg,Images/MSR-VTT-videoTestVideo_video7047-shot1_0/img27.jpg,Images/MSR-VTT-videoTestVideo_video7047-shot1_0/img32.jpg,Images/MSR-VTT-videoTestVideo_video7047-shot1_0/img33.jpg,Images/MSR-VTT-videoTestVideo_video7047-shot1_0/img39.jpg,Images/MSR-VTT-videoTestVideo_video7047-shot1_0/img82.jpg,Images/MSR-VTT-videoTestVideo_video7047-shot1_0/img112.jpg,Images/MSR-VTT-videoTestVideo_video7047-shot1_0/img113.jpg,Images/MSR-VTT-videoTestVideo_video7047-shot1_0/img123.jpg,1021,10,0,2022-06-15_10h46.21.965,annotation,2021.2.3,Win32,59.90534955
,,,,,,,,,,,,,,,,,0.325520833,-0.1171875,1,0,0,image_8,0,26,26,11,1,1999,A pan filled with food being cooked in the oven.,M,0,8,MSR-VTT-videoTestVideo_video8853-shot1_1,Images/MSR-VTT-videoTestVideo_video8853-shot1_1/img151.jpg,Images/MSR-VTT-videoTestVideo_video8853-shot1_1/img163.jpg,Images/MSR-VTT-videoTestVideo_video8853-shot1_1/img165.jpg,Images/MSR-VTT-videoTestVideo_video8853-shot1_1/img173.jpg,Images/MSR-VTT-videoTestVideo_video8853-shot1_1/img189.jpg,Images/MSR-VTT-videoTestVideo_video8853-shot1_1/img207.jpg,Images/MSR-VTT-videoTestVideo_video8853-shot1_1/img215.jpg,Images/MSR-VTT-videoTestVideo_video8853-shot1_1/img250.jpg,Images/MSR-VTT-videoTestVideo_video8853-shot1_1/img286.jpg,Images/MSR-VTT-videoTestVideo_video8853-shot1_1/img305.jpg,1794,10,0,2022-06-15_10h46.21.965,annotation,2021.2.3,Win32,59.90534955
,,,,,,,,,,,,,,,,,-0.2421875,-0.18359375,1,0,0,image_6,0,27,27,13,1,1734,A table with a bunch of kids at a table.,M,0,3,video-storytelling-videobirthday__amwPjAcoC8-shot17_0,Images/video-storytelling-videobirthday__amwPjAcoC8-shot17_0/img0.jpg,Images/video-storytelling-videobirthday__amwPjAcoC8-shot17_0/img2.jpg,Images/video-storytelling-videobirthday__amwPjAcoC8-shot17_0/img8.jpg,Images/video-storytelling-videobirthday__amwPjAcoC8-shot17_0/img12.jpg,Images/video-storytelling-videobirthday__amwPjAcoC8-shot17_0/img19.jpg,Images/video-storytelling-videobirthday__amwPjAcoC8-shot17_0/img22.jpg,Images/video-storytelling-videobirthday__amwPjAcoC8-shot17_0/img28.jpg,Images/video-storytelling-videobirthday__amwPjAcoC8-shot17_0/img52.jpg,Images/video-storytelling-videobirthday__amwPjAcoC8-shot17_0/img55.jpg,Images/video-storytelling-videobirthday__amwPjAcoC8-shot17_0/img66.jpg,278,10,0,2022-06-15_10h46.21.965,annotation,2021.2.3,Win32,59.90534955
,,,,,,,,,,,,,,,,,0.2421875,0.170572917,1,0,0,image_3,0,28,28,51,1,1024,There is a stick that is just above the ashes of a fire. It is not touching the ashes. ,H,0,3,video-storytelling-videocamping_EytINruY3-U-shot37_0,Images/video-storytelling-videocamping_EytINruY3-U-shot37_0/img0.jpg,Images/video-storytelling-videocamping_EytINruY3-U-shot37_0/img16.jpg,Images/video-storytelling-videocamping_EytINruY3-U-shot37_0/img21.jpg,Images/video-storytelling-videocamping_EytINruY3-U-shot37_0/img42.jpg,Images/video-storytelling-videocamping_EytINruY3-U-shot37_0/img141.jpg,Images/video-storytelling-videocamping_EytINruY3-U-shot37_0/img159.jpg,Images/video-storytelling-videocamping_EytINruY3-U-shot37_0/img315.jpg,Images/video-storytelling-videocamping_EytINruY3-U-shot37_0/img317.jpg,Images/video-storytelling-videocamping_EytINruY3-U-shot37_0/img318.jpg,Images/video-storytelling-videocamping_EytINruY3-U-shot37_0/img321.jpg,383,10,0,2022-06-15_10h46.21.965,annotation,2021.2.3,Win32,59.90534955
,,,,,,,,,,,,,,,,,0.01953125,0.1328125,1,0,0,image_2,0,29,29,39,1,1201,A young boy standing next to a table with balloons.,M,0,2,video-storytelling-videobirthday__amwPjAcoC8-shot14_0,Images/video-storytelling-videobirthday__amwPjAcoC8-shot14_0/img0.jpg,Images/video-storytelling-videobirthday__amwPjAcoC8-shot14_0/img6.jpg,Images/video-storytelling-videobirthday__amwPjAcoC8-shot14_0/img11.jpg,Images/video-storytelling-videobirthday__amwPjAcoC8-shot14_0/img14.jpg,Images/video-storytelling-videobirthday__amwPjAcoC8-shot14_0/img15.jpg,Images/video-storytelling-videobirthday__amwPjAcoC8-shot14_0/img16.jpg,Images/video-storytelling-videobirthday__amwPjAcoC8-shot14_0/img18.jpg,Images/video-storytelling-videobirthday__amwPjAcoC8-shot14_0/img21.jpg,Images/video-storytelling-videobirthday__amwPjAcoC8-shot14_0/img23.jpg,Images/video-storytelling-videobirthday__amwPjAcoC8-shot14_0/img26.jpg,1176,10,0,2022-06-15_10h46.21.965,annotation,2021.2.3,Win32,59.90534955
,,,,,,,,,,,,,,,,,0.533854167,0.1640625,1,0,0,image_4,0,30,30,19,1,1056,A person slicing a piece of fruit on a cutting board.,M,0,1,YouCook-video0034-shot14_4,Images/YouCook-video0034-shot14_4/img355.jpg,Images/YouCook-video0034-shot14_4/img361.jpg,Images/YouCook-video0034-shot14_4/img368.jpg,Images/YouCook-video0034-shot14_4/img399.jpg,Images/YouCook-video0034-shot14_4/img403.jpg,Images/YouCook-video0034-shot14_4/img411.jpg,Images/YouCook-video0034-shot14_4/img427.jpg,Images/YouCook-video0034-shot14_4/img432.jpg,Images/YouCook-video0034-shot14_4/img436.jpg,Images/YouCook-video0034-shot14_4/img440.jpg,1584,10,0,2022-06-15_10h46.21.965,annotation,2021.2.3,Win32,59.90534955
,,,,,,,,,,,,,,,,,-0.18359375,0.130208333,1,0,0,image_1,0,31,31,62,1,4,A penguin holding a piece of paper with text on it. ,H,,1,open-images-2521_074d6af730ed17a6,Checks/check5/open-images-509_4d8bd994cb8c6eaeimg0.jpg,Checks/check5/open-images-2521_074d6af730ed17a6img1.jpg,Checks/check5/open-images-1365_a00a5fde334ae45aimg4.jpg,Checks/check5/open-images-1602_44092afdeab39e73img6.jpg,Checks/check5/open-images-1032_059f3cdfb85ee0ceimg3.jpg,Checks/check5/open-images-727_25b77fff36adba66img2.jpg,Checks/check5/open-images-2208_0fb92b9978d98575img2.jpg,Checks/check5/open-images-1305_05769e6abb16fdc8img9.jpg,Checks/check5/open-images-2676_052dbf7b4899430bimg1.jpg,Checks/check5/open-images-2569_1e81d79bb796a2dbimg7.jpg,,,1,2022-06-15_10h46.21.965,annotation,2021.2.3,Win32,59.90534955
,,,,,,,,,,,,,,,,,-0.018229167,0.139322917,1,0,0,image_2,0,32,32,61,1,3,A grey elephant with golden leaves on it. ,H,,2,open-images-1745_0ed62fe71809b2f5,Checks/check4/open-images-2609_3f72daeb23764ecfimg6.jpg,Checks/check4/open-images-1928_60679e2899870e08img1.jpg,Checks/check4/open-images-1745_0ed62fe71809b2f5img2.jpg,Checks/check4/open-images-1811_9ae6351c7f7565edimg0.jpg,Checks/check4/open-images-1721_6f04da11945ea492img3.jpg,Checks/check4/open-images-1907_5f9be3e4ea5e22c7img2.jpg,Checks/check4/open-images-580_0ddffb9c25141999img1.jpg,Checks/check4/open-images-2924_0645dcbcf998fed9img3.jpg,Checks/check4/open-images-869_856ecbcb5faf76e3img8.jpg,Checks/check4/open-images-250_02039517e63a91fbimg1.jpg,,,1,2022-06-15_10h46.21.965,annotation,2021.2.3,Win32,59.90534955
,,,,,,,,,,,,,,,,,-0.51171875,0.171875,1,0,0,image_0,0,33,33,25,1,1359,A little girl sitting in front of a table full of milk.,M,0,5,video-storytelling-videochristmas_5RR_sRzKODA-shot30_14,Images/video-storytelling-videochristmas_5RR_sRzKODA-shot30_14/img606.jpg,Images/video-storytelling-videochristmas_5RR_sRzKODA-shot30_14/img612.jpg,Images/video-storytelling-videochristmas_5RR_sRzKODA-shot30_14/img614.jpg,Images/video-storytelling-videochristmas_5RR_sRzKODA-shot30_14/img622.jpg,Images/video-storytelling-videochristmas_5RR_sRzKODA-shot30_14/img629.jpg,Images/video-storytelling-videochristmas_5RR_sRzKODA-shot30_14/img638.jpg,Images/video-storytelling-videochristmas_5RR_sRzKODA-shot30_14/img646.jpg,Images/video-storytelling-videochristmas_5RR_sRzKODA-shot30_14/img650.jpg,Images/video-storytelling-videochristmas_5RR_sRzKODA-shot30_14/img652.jpg,Images/video-storytelling-videochristmas_5RR_sRzKODA-shot30_14/img653.jpg,1023,10,0,2022-06-15_10h46.21.965,annotation,2021.2.3,Win32,59.90534955
,,,,,,,,,,,,,,,,,-0.072916667,-0.115885417,1,0,0,image_7,0,34,34,36,1,521,"Fade of two images, the woman's hand is still more in focus but it looks like there is a red strip going across her top two fingers.",H,0,7,MSR-VTT-videoTestVideo_video8508-shot1_2,Images/MSR-VTT-videoTestVideo_video8508-shot1_2/img214.jpg,Images/MSR-VTT-videoTestVideo_video8508-shot1_2/img224.jpg,Images/MSR-VTT-videoTestVideo_video8508-shot1_2/img231.jpg,Images/MSR-VTT-videoTestVideo_video8508-shot1_2/img233.jpg,Images/MSR-VTT-videoTestVideo_video8508-shot1_2/img240.jpg,Images/MSR-VTT-videoTestVideo_video8508-shot1_2/img243.jpg,Images/MSR-VTT-videoTestVideo_video8508-shot1_2/img250.jpg,Images/MSR-VTT-videoTestVideo_video8508-shot1_2/img255.jpg,Images/MSR-VTT-videoTestVideo_video8508-shot1_2/img259.jpg,Images/MSR-VTT-videoTestVideo_video8508-shot1_2/img267.jpg,729,10,0,2022-06-15_10h46.21.965,annotation,2021.2.3,Win32,59.90534955
,,,,,,,,,,,,,,,,,0.4375,-0.1796875,1,0,0,image_9,0,35,35,38,1,1692,A collage of various food items in front of a refrigerator.,M,0,6,MSR-VTT-videoTestVideo_video8020-shot1_0,Images/MSR-VTT-videoTestVideo_video8020-shot1_0/img0.jpg,Images/MSR-VTT-videoTestVideo_video8020-shot1_0/img4.jpg,Images/MSR-VTT-videoTestVideo_video8020-shot1_0/img5.jpg,Images/MSR-VTT-videoTestVideo_video8020-shot1_0/img6.jpg,Images/MSR-VTT-videoTestVideo_video8020-shot1_0/img7.jpg,Images/MSR-VTT-videoTestVideo_video8020-shot1_0/img9.jpg,Images/MSR-VTT-videoTestVideo_video8020-shot1_0/img61.jpg,Images/MSR-VTT-videoTestVideo_video8020-shot1_0/img62.jpg,Images/MSR-VTT-videoTestVideo_video8020-shot1_0/img63.jpg,Images/MSR-VTT-videoTestVideo_video8020-shot1_0/img64.jpg,713,10,0,2022-06-15_10h46.21.965,annotation,2021.2.3,Win32,59.90534955
,,,,,,,,,,,,,,,,,0.518229167,-0.184895833,1,0,0,image_9,0,36,36,56,1,148,The plastic egg is open and the two sides are furthest away from each other.,H,0,9,MSR-VTT-videoTestVideo_video9759-shot1_0,Images/MSR-VTT-videoTestVideo_video9759-shot1_0/img0.jpg,Images/MSR-VTT-videoTestVideo_video9759-shot1_0/img8.jpg,Images/MSR-VTT-videoTestVideo_video9759-shot1_0/img16.jpg,Images/MSR-VTT-videoTestVideo_video9759-shot1_0/img32.jpg,Images/MSR-VTT-videoTestVideo_video9759-shot1_0/img37.jpg,Images/MSR-VTT-videoTestVideo_video9759-shot1_0/img46.jpg,Images/MSR-VTT-videoTestVideo_video9759-shot1_0/img56.jpg,Images/MSR-VTT-videoTestVideo_video9759-shot1_0/img65.jpg,Images/MSR-VTT-videoTestVideo_video9759-shot1_0/img69.jpg,Images/MSR-VTT-videoTestVideo_video9759-shot1_0/img72.jpg,1762,10,0,2022-06-15_10h46.21.965,annotation,2021.2.3,Win32,59.90534955
,,,,,,,,,,,,,,,,,0.518229167,-0.184895833,1,0,0,image_9,0,37,37,8,1,605,The black item is clearly touching the ground and the man still has a tight grip on the item.,H,0,4,MSR-VTT-videoTestVideo_video8970-shot1_0,Images/MSR-VTT-videoTestVideo_video8970-shot1_0/img0.jpg,Images/MSR-VTT-videoTestVideo_video8970-shot1_0/img3.jpg,Images/MSR-VTT-videoTestVideo_video8970-shot1_0/img8.jpg,Images/MSR-VTT-videoTestVideo_video8970-shot1_0/img15.jpg,Images/MSR-VTT-videoTestVideo_video8970-shot1_0/img24.jpg,Images/MSR-VTT-videoTestVideo_video8970-shot1_0/img50.jpg,Images/MSR-VTT-videoTestVideo_video8970-shot1_0/img67.jpg,Images/MSR-VTT-videoTestVideo_video8970-shot1_0/img94.jpg,Images/MSR-VTT-videoTestVideo_video8970-shot1_0/img114.jpg,Images/MSR-VTT-videoTestVideo_video8970-shot1_0/img125.jpg,827,10,0,2022-06-15_10h46.21.965,annotation,2021.2.3,Win32,59.90534955
,,,,,,,,,,,,,,,,,-0.442708333,0.09765625,1,0,0,image_0,0,38,38,34,1,1951,A snowboarder is flying over a mountain.,M,1,2,MSR-VTT-videoTestVideo_video7564-shot1_0,Images/MSR-VTT-videoTestVideo_video7564-shot1_0/img0.jpg,Images/MSR-VTT-videoTestVideo_video7564-shot1_0/img7.jpg,Images/MSR-VTT-videoTestVideo_video7564-shot1_0/img10.jpg,Images/MSR-VTT-videoTestVideo_video7564-shot1_0/img15.jpg,Images/MSR-VTT-videoTestVideo_video7564-shot1_0/img17.jpg,Images/MSR-VTT-videoTestVideo_video7564-shot1_0/img20.jpg,Images/MSR-VTT-videoTestVideo_video7564-shot1_0/img25.jpg,Images/MSR-VTT-videoTestVideo_video7564-shot1_0/img27.jpg,Images/MSR-VTT-videoTestVideo_video7564-shot1_0/img36.jpg,Images/MSR-VTT-videoTestVideo_video7564-shot1_0/img42.jpg,2026,10,0,2022-06-15_10h46.21.965,annotation,2021.2.3,Win32,59.90534955
,,,,,,,,,,,,,,,,,0.498697917,-0.16796875,1,0,0,image_9,0,39,39,17,1,81,The girl in the horizontal stripe hoodie has her face visible but not her hair.,H,0,6,video-storytelling-videocamping_1OzbiB1TIWI-shot12_22,Images/video-storytelling-videocamping_1OzbiB1TIWI-shot12_22/img1054.jpg,Images/video-storytelling-videocamping_1OzbiB1TIWI-shot12_22/img1056.jpg,Images/video-storytelling-videocamping_1OzbiB1TIWI-shot12_22/img1057.jpg,Images/video-storytelling-videocamping_1OzbiB1TIWI-shot12_22/img1059.jpg,Images/video-storytelling-videocamping_1OzbiB1TIWI-shot12_22/img1064.jpg,Images/video-storytelling-videocamping_1OzbiB1TIWI-shot12_22/img1068.jpg,Images/video-storytelling-videocamping_1OzbiB1TIWI-shot12_22/img1073.jpg,Images/video-storytelling-videocamping_1OzbiB1TIWI-shot12_22/img1077.jpg,Images/video-storytelling-videocamping_1OzbiB1TIWI-shot12_22/img1085.jpg,Images/video-storytelling-videocamping_1OzbiB1TIWI-shot12_22/img1092.jpg,99,10,0,2022-06-15_10h46.21.965,annotation,2021.2.3,Win32,59.90534955
,,,,,,,,,,,,,,,,,0.19921875,-0.125,1,0,0,image_8,0,40,40,55,1,1686,A woman with long hair and a face that looks like it's from a movie.,M,0,5,MSR-VTT-videoTestVideo_video7533-shot1_4,Images/MSR-VTT-videoTestVideo_video7533-shot1_4/img398.jpg,Images/MSR-VTT-videoTestVideo_video7533-shot1_4/img402.jpg,Images/MSR-VTT-videoTestVideo_video7533-shot1_4/img406.jpg,Images/MSR-VTT-videoTestVideo_video7533-shot1_4/img413.jpg,Images/MSR-VTT-videoTestVideo_video7533-shot1_4/img417.jpg,Images/MSR-VTT-videoTestVideo_video7533-shot1_4/img423.jpg,Images/MSR-VTT-videoTestVideo_video7533-shot1_4/img425.jpg,Images/MSR-VTT-videoTestVideo_video7533-shot1_4/img429.jpg,Images/MSR-VTT-videoTestVideo_video7533-shot1_4/img449.jpg,Images/MSR-VTT-videoTestVideo_video7533-shot1_4/img456.jpg,982,10,0,2022-06-15_10h46.21.965,annotation,2021.2.3,Win32,59.90534955
,,,,,,,,,,,,,,,,,0.21484375,0.102864583,1,0,0,image_3,0,41,41,0,1,799,his ring finger of his left hand is barely visible right above the outline of the ribs,H,0,4,YouCook-video0017-shot13_0,Images/YouCook-video0017-shot13_0/img0.jpg,Images/YouCook-video0017-shot13_0/img3.jpg,Images/YouCook-video0017-shot13_0/img10.jpg,Images/YouCook-video0017-shot13_0/img13.jpg,Images/YouCook-video0017-shot13_0/img17.jpg,Images/YouCook-video0017-shot13_0/img21.jpg,Images/YouCook-video0017-shot13_0/img26.jpg,Images/YouCook-video0017-shot13_0/img30.jpg,Images/YouCook-video0017-shot13_0/img33.jpg,Images/YouCook-video0017-shot13_0/img37.jpg,860,10,0,2022-06-15_10h46.21.965,annotation,2021.2.3,Win32,59.90534955
,,,,,,,,,,,,,,,,,0.567708333,-0.08984375,1,0,0,image_9,0,42,42,43,1,718,There is a lot of space between the two object the man is holding.  You can see almost the entire bottom object and he hasn't rotated it slightly clockwise yet. ,H,0,8,MSR-VTT-videoTestVideo_video9613-shot1_0,Images/MSR-VTT-videoTestVideo_video9613-shot1_0/img0.jpg,Images/MSR-VTT-videoTestVideo_video9613-shot1_0/img4.jpg,Images/MSR-VTT-videoTestVideo_video9613-shot1_0/img6.jpg,Images/MSR-VTT-videoTestVideo_video9613-shot1_0/img9.jpg,Images/MSR-VTT-videoTestVideo_video9613-shot1_0/img11.jpg,Images/MSR-VTT-videoTestVideo_video9613-shot1_0/img13.jpg,Images/MSR-VTT-videoTestVideo_video9613-shot1_0/img14.jpg,Images/MSR-VTT-videoTestVideo_video9613-shot1_0/img15.jpg,Images/MSR-VTT-videoTestVideo_video9613-shot1_0/img22.jpg,Images/MSR-VTT-videoTestVideo_video9613-shot1_0/img25.jpg,1013,10,0,2022-06-15_10h46.21.965,annotation,2021.2.3,Win32,59.90534955
,,,,,,,,,,,,,,,,,-0.524739583,0.131510417,1,0,0,image_0,0,43,43,31,1,1121,A man standing next to a stage with a microphone.,M,0,0,MSR-VTT-videoTestVideo_video8403-shot1_1,Images/MSR-VTT-videoTestVideo_video8403-shot1_1/img36.jpg,Images/MSR-VTT-videoTestVideo_video8403-shot1_1/img39.jpg,Images/MSR-VTT-videoTestVideo_video8403-shot1_1/img44.jpg,Images/MSR-VTT-videoTestVideo_video8403-shot1_1/img49.jpg,Images/MSR-VTT-videoTestVideo_video8403-shot1_1/img51.jpg,Images/MSR-VTT-videoTestVideo_video8403-shot1_1/img53.jpg,Images/MSR-VTT-videoTestVideo_video8403-shot1_1/img56.jpg,Images/MSR-VTT-videoTestVideo_video8403-shot1_1/img57.jpg,Images/MSR-VTT-videoTestVideo_video8403-shot1_1/img62.jpg,Images/MSR-VTT-videoTestVideo_video8403-shot1_1/img63.jpg,2009,10,0,2022-06-15_10h46.21.965,annotation,2021.2.3,Win32,59.90534955
,,,,,,,,,,,,,,,,,-0.19140625,-0.19921875,1,0,0,image_6,0,44,44,50,1,79,You can for the first time no longer see the man's left hand on the right side of the picture.  ,H,0,6,MSR-VTT-videoTestVideo_video9053-shot1_7,Images/MSR-VTT-videoTestVideo_video9053-shot1_7/img321.jpg,Images/MSR-VTT-videoTestVideo_video9053-shot1_7/img324.jpg,Images/MSR-VTT-videoTestVideo_video9053-shot1_7/img330.jpg,Images/MSR-VTT-videoTestVideo_video9053-shot1_7/img344.jpg,Images/MSR-VTT-videoTestVideo_video9053-shot1_7/img354.jpg,Images/MSR-VTT-videoTestVideo_video9053-shot1_7/img357.jpg,Images/MSR-VTT-videoTestVideo_video9053-shot1_7/img362.jpg,Images/MSR-VTT-videoTestVideo_video9053-shot1_7/img365.jpg,Images/MSR-VTT-videoTestVideo_video9053-shot1_7/img367.jpg,Images/MSR-VTT-videoTestVideo_video9053-shot1_7/img369.jpg,1931,10,0,2022-06-15_10h46.21.965,annotation,2021.2.3,Win32,59.90534955
,,,,,,,,,,,,,,,,,0.305989583,-0.1875,1,0,0,image_8,0,45,45,29,1,1667,A man holding a microphone in front of a microphone.,M,1,5,MSR-VTT-videoTestVideo_video8755-shot1_0,Images/MSR-VTT-videoTestVideo_video8755-shot1_0/img0.jpg,Images/MSR-VTT-videoTestVideo_video8755-shot1_0/img3.jpg,Images/MSR-VTT-videoTestVideo_video8755-shot1_0/img6.jpg,Images/MSR-VTT-videoTestVideo_video8755-shot1_0/img12.jpg,Images/MSR-VTT-videoTestVideo_video8755-shot1_0/img13.jpg,Images/MSR-VTT-videoTestVideo_video8755-shot1_0/img18.jpg,Images/MSR-VTT-videoTestVideo_video8755-shot1_0/img19.jpg,Images/MSR-VTT-videoTestVideo_video8755-shot1_0/img23.jpg,Images/MSR-VTT-videoTestVideo_video8755-shot1_0/img33.jpg,Images/MSR-VTT-videoTestVideo_video8755-shot1_0/img45.jpg,949,10,0,2022-06-15_10h46.21.965,annotation,2021.2.3,Win32,59.90534955
,,,,,,,,,,,,,,,,,0.548177083,-0.21484375,1,0,0,image_9,0,46,46,12,1,1758,A car driving down a busy street.,M,0,4,video-storytelling-videobirthday_fwpYnUDbusw-shot29_0,Images/video-storytelling-videobirthday_fwpYnUDbusw-shot29_0/img0.jpg,Images/video-storytelling-videobirthday_fwpYnUDbusw-shot29_0/img1.jpg,Images/video-storytelling-videobirthday_fwpYnUDbusw-shot29_0/img3.jpg,Images/video-storytelling-videobirthday_fwpYnUDbusw-shot29_0/img4.jpg,Images/video-storytelling-videobirthday_fwpYnUDbusw-shot29_0/img5.jpg,Images/video-storytelling-videobirthday_fwpYnUDbusw-shot29_0/img6.jpg,Images/video-storytelling-videobirthday_fwpYnUDbusw-shot29_0/img10.jpg,Images/video-storytelling-videobirthday_fwpYnUDbusw-shot29_0/img11.jpg,Images/video-storytelling-videobirthday_fwpYnUDbusw-shot29_0/img14.jpg,Images/video-storytelling-videobirthday_fwpYnUDbusw-shot29_0/img17.jpg,1635,10,0,2022-06-15_10h46.21.965,annotation,2021.2.3,Win32,59.90534955
,,,,,,,,,,,,,,,,,0.009114583,0.067708333,1,0,0,image_2,0,47,47,58,1,0,Pair of black gloves,H,,2,open-images-510_3a241cb30d6e5319,Checks/check1/open-images-225_1442c0d0ef23d58bimg3.jpg,Checks/check1/open-images-2759_3a42708fe77398b7img8.jpg,Checks/check1/open-images-510_3a241cb30d6e5319img2.jpg,Checks/check1/open-images-2209_02c98146fb93ff17img1.jpg,Checks/check1/open-images-1553_0f128317e56a9d2fimg9.jpg,Checks/check1/open-images-2666_044d7c6d11e6b493img8.jpg,Checks/check1/open-images-2880_159294646083f545img4.jpg,Checks/check1/open-images-609_2dc0baa993a2bd25img5.jpg,Checks/check1/open-images-1854_2b15616b4f1080e7img2.jpg,Checks/check1/open-images-1435_1b0ce31951048765img8.jpg,,,1,2022-06-15_10h46.21.965,annotation,2021.2.3,Win32,59.90534955
,,,,,,,,,,,,,,,,,-0.1953125,-0.145833333,1,0,0,image_6,0,48,48,33,1,1191,A person is cutting a piece of plastic with scissors.,M,0,7,MSR-VTT-videoTestVideo_video9759-shot1_0,Images/MSR-VTT-videoTestVideo_video9759-shot1_0/img0.jpg,Images/MSR-VTT-videoTestVideo_video9759-shot1_0/img8.jpg,Images/MSR-VTT-videoTestVideo_video9759-shot1_0/img16.jpg,Images/MSR-VTT-videoTestVideo_video9759-shot1_0/img32.jpg,Images/MSR-VTT-videoTestVideo_video9759-shot1_0/img37.jpg,Images/MSR-VTT-videoTestVideo_video9759-shot1_0/img46.jpg,Images/MSR-VTT-videoTestVideo_video9759-shot1_0/img56.jpg,Images/MSR-VTT-videoTestVideo_video9759-shot1_0/img65.jpg,Images/MSR-VTT-videoTestVideo_video9759-shot1_0/img69.jpg,Images/MSR-VTT-videoTestVideo_video9759-shot1_0/img72.jpg,57,10,0,2022-06-15_10h46.21.965,annotation,2021.2.3,Win32,59.90534955
,,,,,,,,,,,,,,,,,-0.2734375,0.125,1,0,0,image_1,0,49,49,54,1,1263,A person riding a motorcycle on a city street.,M,0,4,MSR-VTT-videoTestVideo_video9773-shot1_0,Images/MSR-VTT-videoTestVideo_video9773-shot1_0/img2.jpg,Images/MSR-VTT-videoTestVideo_video9773-shot1_0/img10.jpg,Images/MSR-VTT-videoTestVideo_video9773-shot1_0/img15.jpg,Images/MSR-VTT-videoTestVideo_video9773-shot1_0/img18.jpg,Images/MSR-VTT-videoTestVideo_video9773-shot1_0/img23.jpg,Images/MSR-VTT-videoTestVideo_video9773-shot1_0/img26.jpg,Images/MSR-VTT-videoTestVideo_video9773-shot1_0/img28.jpg,Images/MSR-VTT-videoTestVideo_video9773-shot1_0/img29.jpg,Images/MSR-VTT-videoTestVideo_video9773-shot1_0/img31.jpg,Images/MSR-VTT-videoTestVideo_video9773-shot1_0/img33.jpg,1364,10,0,2022-06-15_10h46.21.965,annotation,2021.2.3,Win32,59.90534955
,,,,,,,,,,,,,,,,,0.463541667,0.11328125,1,0,0,image_4,0,50,50,32,1,296,"Both bowls can be seen evenly, four fingers are spread behind bowls",H,0,2,YouCook-video0010-shot1_1,Images/YouCook-video0010-shot1_1/img165.jpg,Images/YouCook-video0010-shot1_1/img179.jpg,Images/YouCook-video0010-shot1_1/img189.jpg,Images/YouCook-video0010-shot1_1/img201.jpg,Images/YouCook-video0010-shot1_1/img213.jpg,Images/YouCook-video0010-shot1_1/img216.jpg,Images/YouCook-video0010-shot1_1/img226.jpg,Images/YouCook-video0010-shot1_1/img235.jpg,Images/YouCook-video0010-shot1_1/img240.jpg,Images/YouCook-video0010-shot1_1/img251.jpg,1029,10,0,2022-06-15_10h46.21.965,annotation,2021.2.3,Win32,59.90534955
,,,,,,,,,,,,,,,,,0.005208333,-0.145833333,1,0,0,image_7,0,51,51,10,1,511,The middle finger is sticking up on the left hand. The right hand is pressing down at the tip of the shape.,H,0,7,MSR-VTT-videoTestVideo_video7161-shot0_0,Images/MSR-VTT-videoTestVideo_video7161-shot0_0/img0.jpg,Images/MSR-VTT-videoTestVideo_video7161-shot0_0/img19.jpg,Images/MSR-VTT-videoTestVideo_video7161-shot0_0/img21.jpg,Images/MSR-VTT-videoTestVideo_video7161-shot0_0/img26.jpg,Images/MSR-VTT-videoTestVideo_video7161-shot0_0/img34.jpg,Images/MSR-VTT-videoTestVideo_video7161-shot0_0/img40.jpg,Images/MSR-VTT-videoTestVideo_video7161-shot0_0/img48.jpg,Images/MSR-VTT-videoTestVideo_video7161-shot0_0/img51.jpg,Images/MSR-VTT-videoTestVideo_video7161-shot0_0/img62.jpg,Images/MSR-VTT-videoTestVideo_video7161-shot0_0/img70.jpg,481,10,0,2022-06-15_10h46.21.965,annotation,2021.2.3,Win32,59.90534955
,,,,,,,,,,,,,,,,,-0.227864583,0.130208333,1,0,0,image_1,0,52,52,27,1,1547,A person with a horse and a dog on a beach.,M,0,7,MSR-VTT-videoTestVideo_video9577-shot1_2,Images/MSR-VTT-videoTestVideo_video9577-shot1_2/img348.jpg,Images/MSR-VTT-videoTestVideo_video9577-shot1_2/img351.jpg,Images/MSR-VTT-videoTestVideo_video9577-shot1_2/img352.jpg,Images/MSR-VTT-videoTestVideo_video9577-shot1_2/img354.jpg,Images/MSR-VTT-videoTestVideo_video9577-shot1_2/img359.jpg,Images/MSR-VTT-videoTestVideo_video9577-shot1_2/img363.jpg,Images/MSR-VTT-videoTestVideo_video9577-shot1_2/img368.jpg,Images/MSR-VTT-videoTestVideo_video9577-shot1_2/img373.jpg,Images/MSR-VTT-videoTestVideo_video9577-shot1_2/img379.jpg,Images/MSR-VTT-videoTestVideo_video9577-shot1_2/img385.jpg,1297,10,0,2022-06-15_10h46.21.965,annotation,2021.2.3,Win32,59.90534955
,,,,,,,,,,,,,,,,,-0.3359375,0.125,1,0,0,image_1,0,53,53,9,1,1917,A couple of people standing in a kitchen.,M,0,2,video-storytelling-videobirthday_fwpYnUDbusw-shot4_0,Images/video-storytelling-videobirthday_fwpYnUDbusw-shot4_0/img0.jpg,Images/video-storytelling-videobirthday_fwpYnUDbusw-shot4_0/img4.jpg,Images/video-storytelling-videobirthday_fwpYnUDbusw-shot4_0/img9.jpg,Images/video-storytelling-videobirthday_fwpYnUDbusw-shot4_0/img19.jpg,Images/video-storytelling-videobirthday_fwpYnUDbusw-shot4_0/img26.jpg,Images/video-storytelling-videobirthday_fwpYnUDbusw-shot4_0/img40.jpg,Images/video-storytelling-videobirthday_fwpYnUDbusw-shot4_0/img62.jpg,Images/video-storytelling-videobirthday_fwpYnUDbusw-shot4_0/img78.jpg,Images/video-storytelling-videobirthday_fwpYnUDbusw-shot4_0/img85.jpg,Images/video-storytelling-videobirthday_fwpYnUDbusw-shot4_0/img96.jpg,290,10,0,2022-06-15_10h46.21.965,annotation,2021.2.3,Win32,59.90534955
,,,,,,,,,,,,,,,,,-0.17578125,-0.122395833,1,0,0,image_6,0,54,54,57,1,259,The microphone is blocking a lot of the singer's mouth.  You can see his his right hand but not all of his fingers.  Only the thumb of his left on the guitar. ,H,0,6,MSR-VTT-videoTestVideo_video9947-shot2_0,Images/MSR-VTT-videoTestVideo_video9947-shot2_0/img0.jpg,Images/MSR-VTT-videoTestVideo_video9947-shot2_0/img11.jpg,Images/MSR-VTT-videoTestVideo_video9947-shot2_0/img22.jpg,Images/MSR-VTT-videoTestVideo_video9947-shot2_0/img55.jpg,Images/MSR-VTT-videoTestVideo_video9947-shot2_0/img78.jpg,Images/MSR-VTT-videoTestVideo_video9947-shot2_0/img87.jpg,Images/MSR-VTT-videoTestVideo_video9947-shot2_0/img98.jpg,Images/MSR-VTT-videoTestVideo_video9947-shot2_0/img123.jpg,Images/MSR-VTT-videoTestVideo_video9947-shot2_0/img125.jpg,Images/MSR-VTT-videoTestVideo_video9947-shot2_0/img148.jpg,987,10,0,2022-06-15_10h46.21.965,annotation,2021.2.3,Win32,59.90534955
,,,,,,,,,,,,,,,,,0.5,0.145833333,1,0,0,image_4,0,55,55,35,1,429,The person is only holding the red object in their right hand.  It appears very sideways and the shape of it can't really be seen. ,H,0,2,MSR-VTT-videoTestVideo_video8153-shot1_0,Images/MSR-VTT-videoTestVideo_video8153-shot1_0/img5.jpg,Images/MSR-VTT-videoTestVideo_video8153-shot1_0/img18.jpg,Images/MSR-VTT-videoTestVideo_video8153-shot1_0/img22.jpg,Images/MSR-VTT-videoTestVideo_video8153-shot1_0/img23.jpg,Images/MSR-VTT-videoTestVideo_video8153-shot1_0/img26.jpg,Images/MSR-VTT-videoTestVideo_video8153-shot1_0/img47.jpg,Images/MSR-VTT-videoTestVideo_video8153-shot1_0/img73.jpg,Images/MSR-VTT-videoTestVideo_video8153-shot1_0/img91.jpg,Images/MSR-VTT-videoTestVideo_video8153-shot1_0/img129.jpg,Images/MSR-VTT-videoTestVideo_video8153-shot1_0/img216.jpg,2032,10,0,2022-06-15_10h46.21.965,annotation,2021.2.3,Win32,59.90534955
,,,,,,,,,,,,,,,,,0.302083333,0.095052083,1,0,0,image_3,0,56,56,16,1,533,The dress's white swirls take up the whole middle of the picture. There is only a tiny bit of pink visible in the bottom right corner.,H,0,3,video-storytelling-videowedding_46xhFCXBMJs-shot39_0,Images/video-storytelling-videowedding_46xhFCXBMJs-shot39_0/img0.jpg,Images/video-storytelling-videowedding_46xhFCXBMJs-shot39_0/img23.jpg,Images/video-storytelling-videowedding_46xhFCXBMJs-shot39_0/img59.jpg,Images/video-storytelling-videowedding_46xhFCXBMJs-shot39_0/img83.jpg,Images/video-storytelling-videowedding_46xhFCXBMJs-shot39_0/img96.jpg,Images/video-storytelling-videowedding_46xhFCXBMJs-shot39_0/img101.jpg,Images/video-storytelling-videowedding_46xhFCXBMJs-shot39_0/img120.jpg,Images/video-storytelling-videowedding_46xhFCXBMJs-shot39_0/img125.jpg,Images/video-storytelling-videowedding_46xhFCXBMJs-shot39_0/img129.jpg,Images/video-storytelling-videowedding_46xhFCXBMJs-shot39_0/img135.jpg,1818,10,0,2022-06-15_10h46.21.965,annotation,2021.2.3,Win32,59.90534955
,,,,,,,,,,,,,,,,,-0.446614583,0.126302083,1,0,0,image_0,0,57,57,53,1,201,A hand and part of the cuff are visible reaching out towards the front of the cat,H,0,0,MSR-VTT-videoTestVideo_video9393-shot1_4,Images/MSR-VTT-videoTestVideo_video9393-shot1_4/img179.jpg,Images/MSR-VTT-videoTestVideo_video9393-shot1_4/img181.jpg,Images/MSR-VTT-videoTestVideo_video9393-shot1_4/img186.jpg,Images/MSR-VTT-videoTestVideo_video9393-shot1_4/img190.jpg,Images/MSR-VTT-videoTestVideo_video9393-shot1_4/img192.jpg,Images/MSR-VTT-videoTestVideo_video9393-shot1_4/img194.jpg,Images/MSR-VTT-videoTestVideo_video9393-shot1_4/img196.jpg,Images/MSR-VTT-videoTestVideo_video9393-shot1_4/img201.jpg,Images/MSR-VTT-videoTestVideo_video9393-shot1_4/img208.jpg,Images/MSR-VTT-videoTestVideo_video9393-shot1_4/img210.jpg,1951,10,0,2022-06-15_10h46.21.965,annotation,2021.2.3,Win32,59.90534955
,,,,,,,,,,,,,,,,,0.467447917,-0.177083333,1,0,0,image_9,0,58,58,48,1,755,"The lights in the background are off, the woman on the left can be fully seen and a present on the left can just barely be seen. ",H,0,6,video-storytelling-videochristmas_5RR_sRzKODA-shot21_2,Images/video-storytelling-videochristmas_5RR_sRzKODA-shot21_2/img72.jpg,Images/video-storytelling-videochristmas_5RR_sRzKODA-shot21_2/img73.jpg,Images/video-storytelling-videochristmas_5RR_sRzKODA-shot21_2/img80.jpg,Images/video-storytelling-videochristmas_5RR_sRzKODA-shot21_2/img87.jpg,Images/video-storytelling-videochristmas_5RR_sRzKODA-shot21_2/img88.jpg,Images/video-storytelling-videochristmas_5RR_sRzKODA-shot21_2/img89.jpg,Images/video-storytelling-videochristmas_5RR_sRzKODA-shot21_2/img90.jpg,Images/video-storytelling-videochristmas_5RR_sRzKODA-shot21_2/img91.jpg,Images/video-storytelling-videochristmas_5RR_sRzKODA-shot21_2/img92.jpg,Images/video-storytelling-videochristmas_5RR_sRzKODA-shot21_2/img94.jpg,1003,10,0,2022-06-15_10h46.21.965,annotation,2021.2.3,Win32,59.90534955
,,,,,,,,,,,,,,,,,0.251302083,0.095052083,1,0,0,image_3,0,59,59,4,1,1629,A couple of children in costumes standing on a lawn.,M,0,4,video-storytelling-videobirthday__amwPjAcoC8-shot1_2,Images/video-storytelling-videobirthday__amwPjAcoC8-shot1_2/img39.jpg,Images/video-storytelling-videobirthday__amwPjAcoC8-shot1_2/img41.jpg,Images/video-storytelling-videobirthday__amwPjAcoC8-shot1_2/img43.jpg,Images/video-storytelling-videobirthday__amwPjAcoC8-shot1_2/img44.jpg,Images/video-storytelling-videobirthday__amwPjAcoC8-shot1_2/img46.jpg,Images/video-storytelling-videobirthday__amwPjAcoC8-shot1_2/img49.jpg,Images/video-storytelling-videobirthday__amwPjAcoC8-shot1_2/img51.jpg,Images/video-storytelling-videobirthday__amwPjAcoC8-shot1_2/img55.jpg,Images/video-storytelling-videobirthday__amwPjAcoC8-shot1_2/img56.jpg,Images/video-storytelling-videobirthday__amwPjAcoC8-shot1_2/img58.jpg,294,10,0,2022-06-15_10h46.21.965,annotation,2021.2.3,Win32,59.90534955
,,,,,,,,,,,,,,,,,0.513020833,-0.119791667,1,0,0,image_9,0,60,60,44,1,166,The woman in grey pants is making a peace sign with her hand closest to the camera,H,0,1,video-storytelling-videocamping_1OzbiB1TIWI-shot12_6,Images/video-storytelling-videocamping_1OzbiB1TIWI-shot12_6/img288.jpg,Images/video-storytelling-videocamping_1OzbiB1TIWI-shot12_6/img299.jpg,Images/video-storytelling-videocamping_1OzbiB1TIWI-shot12_6/img304.jpg,Images/video-storytelling-videocamping_1OzbiB1TIWI-shot12_6/img309.jpg,Images/video-storytelling-videocamping_1OzbiB1TIWI-shot12_6/img318.jpg,Images/video-storytelling-videocamping_1OzbiB1TIWI-shot12_6/img323.jpg,Images/video-storytelling-videocamping_1OzbiB1TIWI-shot12_6/img329.jpg,Images/video-storytelling-videocamping_1OzbiB1TIWI-shot12_6/img335.jpg,Images/video-storytelling-videocamping_1OzbiB1TIWI-shot12_6/img345.jpg,Images/video-storytelling-videocamping_1OzbiB1TIWI-shot12_6/img359.jpg,1763,10,0,2022-06-15_10h46.21.965,annotation,2021.2.3,Win32,59.90534955
,,,,,,,,,,,,,,,,,0.279947917,0.12890625,1,0,0,image_3,0,61,61,40,1,1946,A woman standing in front of a mixer in a kitchen.,M,0,6,YouCook-video0063-shot19_1,Images/YouCook-video0063-shot19_1/img118.jpg,Images/YouCook-video0063-shot19_1/img147.jpg,Images/YouCook-video0063-shot19_1/img164.jpg,Images/YouCook-video0063-shot19_1/img247.jpg,Images/YouCook-video0063-shot19_1/img442.jpg,Images/YouCook-video0063-shot19_1/img452.jpg,Images/YouCook-video0063-shot19_1/img483.jpg,Images/YouCook-video0063-shot19_1/img487.jpg,Images/YouCook-video0063-shot19_1/img666.jpg,Images/YouCook-video0063-shot19_1/img673.jpg,2059,10,0,2022-06-15_10h46.21.965,annotation,2021.2.3,Win32,59.90534955
,,,,,,,,,,,,,,,,,-0.430989583,-0.12890625,1,0,0,image_5,0,62,62,37,1,172,2 faded images. Two men facing away are darkest but a girl's face is still very visible above them.,H,0,6,MSR-VTT-videoTestVideo_video9421-shot1_1,Images/MSR-VTT-videoTestVideo_video9421-shot1_1/img102.jpg,Images/MSR-VTT-videoTestVideo_video9421-shot1_1/img106.jpg,Images/MSR-VTT-videoTestVideo_video9421-shot1_1/img145.jpg,Images/MSR-VTT-videoTestVideo_video9421-shot1_1/img200.jpg,Images/MSR-VTT-videoTestVideo_video9421-shot1_1/img214.jpg,Images/MSR-VTT-videoTestVideo_video9421-shot1_1/img222.jpg,Images/MSR-VTT-videoTestVideo_video9421-shot1_1/img226.jpg,Images/MSR-VTT-videoTestVideo_video9421-shot1_1/img229.jpg,Images/MSR-VTT-videoTestVideo_video9421-shot1_1/img233.jpg,Images/MSR-VTT-videoTestVideo_video9421-shot1_1/img249.jpg,1205,10,0,2022-06-15_10h46.21.965,annotation,2021.2.3,Win32,59.90534955
