mturk,key_resp_2.keys,key_resp_2.rt,key_resp_3.keys,key_resp_3.rt,mouse_2.x,mouse_2.y,mouse_2.leftButton,mouse_2.midButton,mouse_2.rightButton,mouse_2.clicked_name,key_resp_5.keys,key_resp_5.rt,key_resp.keys,key_resp.rt,key_resp_6.keys,key_resp_6.rt,mouse.x,mouse.y,mouse.leftButton,mouse.midButton,mouse.rightButton,mouse.clicked_name,trials.thisRepN,trials.thisTrialN,trials.thisN,trials.thisIndex,trials.ran,N,caption,class_caption,model_guessed,target_idx,image_set,img1,img2,img3,img4,img5,img6,img7,img8,img9,img10,Q_id,block,is_check,date,expName,psychopyVersion,OS,frameRate,key_resp_7.keys,key_resp_7.rt
8818324,space,7.9837,space,4.5213,0.295555556,0.073333333,1,0,0,ex4,space,5.0026,space,3.1763,space,6.1013,0.31,-0.144444444,1,0,0,image_8,0,0,0,24,1,1275,A couple of people standing next to a fence.,M,0,7,MSR-VTT-videoTestVideo_video8356-shot1_7,Images/MSR-VTT-videoTestVideo_video8356-shot1_7/img555.jpg,Images/MSR-VTT-videoTestVideo_video8356-shot1_7/img565.jpg,Images/MSR-VTT-videoTestVideo_video8356-shot1_7/img567.jpg,Images/MSR-VTT-videoTestVideo_video8356-shot1_7/img569.jpg,Images/MSR-VTT-videoTestVideo_video8356-shot1_7/img575.jpg,Images/MSR-VTT-videoTestVideo_video8356-shot1_7/img578.jpg,Images/MSR-VTT-videoTestVideo_video8356-shot1_7/img584.jpg,Images/MSR-VTT-videoTestVideo_video8356-shot1_7/img586.jpg,Images/MSR-VTT-videoTestVideo_video8356-shot1_7/img593.jpg,Images/MSR-VTT-videoTestVideo_video8356-shot1_7/img601.jpg,639,25,0,2022-06-16_05h34.53.979,annotation,2021.2.3,Win32,60.0024001,,
,,,,,,,,,,,,,,,,,0.206666667,0.142222222,1,0,0,image_3,0,1,1,15,1,1515,A couple of people standing next to each other on a skateboard.,M,0,4,MSR-VTT-videoTestVideo_video7622-shot4_1,Images/MSR-VTT-videoTestVideo_video7622-shot4_1/img39.jpg,Images/MSR-VTT-videoTestVideo_video7622-shot4_1/img43.jpg,Images/MSR-VTT-videoTestVideo_video7622-shot4_1/img54.jpg,Images/MSR-VTT-videoTestVideo_video7622-shot4_1/img60.jpg,Images/MSR-VTT-videoTestVideo_video7622-shot4_1/img61.jpg,Images/MSR-VTT-videoTestVideo_video7622-shot4_1/img66.jpg,Images/MSR-VTT-videoTestVideo_video7622-shot4_1/img71.jpg,Images/MSR-VTT-videoTestVideo_video7622-shot4_1/img80.jpg,Images/MSR-VTT-videoTestVideo_video7622-shot4_1/img82.jpg,Images/MSR-VTT-videoTestVideo_video7622-shot4_1/img87.jpg,1714,25,0,2022-06-16_05h34.53.979,annotation,2021.2.3,Win32,60.0024001,,
,,,,,,,,,,,,,,,,,0.222222222,0.168888889,1,0,0,image_3,0,2,2,19,1,1839,A man standing in front of a blue wall.,M,0,5,MSR-VTT-videoTestVideo_video9319-shot1_2,Images/MSR-VTT-videoTestVideo_video9319-shot1_2/img163.jpg,Images/MSR-VTT-videoTestVideo_video9319-shot1_2/img170.jpg,Images/MSR-VTT-videoTestVideo_video9319-shot1_2/img186.jpg,Images/MSR-VTT-videoTestVideo_video9319-shot1_2/img201.jpg,Images/MSR-VTT-videoTestVideo_video9319-shot1_2/img211.jpg,Images/MSR-VTT-videoTestVideo_video9319-shot1_2/img220.jpg,Images/MSR-VTT-videoTestVideo_video9319-shot1_2/img229.jpg,Images/MSR-VTT-videoTestVideo_video9319-shot1_2/img236.jpg,Images/MSR-VTT-videoTestVideo_video9319-shot1_2/img272.jpg,Images/MSR-VTT-videoTestVideo_video9319-shot1_2/img276.jpg,1594,25,0,2022-06-16_05h34.53.979,annotation,2021.2.3,Win32,60.0024001,,
,,,,,,,,,,,,,,,,,-0.308888889,0.127777778,1,0,0,image_1,0,3,3,9,1,1971,A woman standing in front of a brown bear.,M,0,7,video-storytelling-videocamping_dBXYM3dQTSo-shot55_1,Images/video-storytelling-videocamping_dBXYM3dQTSo-shot55_1/img64.jpg,Images/video-storytelling-videocamping_dBXYM3dQTSo-shot55_1/img103.jpg,Images/video-storytelling-videocamping_dBXYM3dQTSo-shot55_1/img138.jpg,Images/video-storytelling-videocamping_dBXYM3dQTSo-shot55_1/img151.jpg,Images/video-storytelling-videocamping_dBXYM3dQTSo-shot55_1/img162.jpg,Images/video-storytelling-videocamping_dBXYM3dQTSo-shot55_1/img177.jpg,Images/video-storytelling-videocamping_dBXYM3dQTSo-shot55_1/img180.jpg,Images/video-storytelling-videocamping_dBXYM3dQTSo-shot55_1/img193.jpg,Images/video-storytelling-videocamping_dBXYM3dQTSo-shot55_1/img202.jpg,Images/video-storytelling-videocamping_dBXYM3dQTSo-shot55_1/img205.jpg,33,25,0,2022-06-16_05h34.53.979,annotation,2021.2.3,Win32,60.0024001,,
,,,,,,,,,,,,,,,,,-0.245555556,0.157777778,1,0,0,image_1,0,4,4,33,1,1204,A person jumping up and down in the air.,M,0,3,MSR-VTT-videoTestVideo_video9623-shot1_2,Images/MSR-VTT-videoTestVideo_video9623-shot1_2/img149.jpg,Images/MSR-VTT-videoTestVideo_video9623-shot1_2/img151.jpg,Images/MSR-VTT-videoTestVideo_video9623-shot1_2/img154.jpg,Images/MSR-VTT-videoTestVideo_video9623-shot1_2/img158.jpg,Images/MSR-VTT-videoTestVideo_video9623-shot1_2/img165.jpg,Images/MSR-VTT-videoTestVideo_video9623-shot1_2/img166.jpg,Images/MSR-VTT-videoTestVideo_video9623-shot1_2/img168.jpg,Images/MSR-VTT-videoTestVideo_video9623-shot1_2/img173.jpg,Images/MSR-VTT-videoTestVideo_video9623-shot1_2/img174.jpg,Images/MSR-VTT-videoTestVideo_video9623-shot1_2/img175.jpg,1269,25,0,2022-06-16_05h34.53.979,annotation,2021.2.3,Win32,60.0024001,,
,,,,,,,,,,,,,,,,,-0.012222222,-0.152222222,1,0,0,image_7,0,5,5,48,1,114,Most of the hand is visible with it in the top right. The spoon is touching the bottom edge of the image.,H,1,2,MSR-VTT-videoTestVideo_video7705-shot1_0,Images/MSR-VTT-videoTestVideo_video7705-shot1_0/img0.jpg,Images/MSR-VTT-videoTestVideo_video7705-shot1_0/img3.jpg,Images/MSR-VTT-videoTestVideo_video7705-shot1_0/img7.jpg,Images/MSR-VTT-videoTestVideo_video7705-shot1_0/img11.jpg,Images/MSR-VTT-videoTestVideo_video7705-shot1_0/img12.jpg,Images/MSR-VTT-videoTestVideo_video7705-shot1_0/img15.jpg,Images/MSR-VTT-videoTestVideo_video7705-shot1_0/img19.jpg,Images/MSR-VTT-videoTestVideo_video7705-shot1_0/img25.jpg,Images/MSR-VTT-videoTestVideo_video7705-shot1_0/img32.jpg,Images/MSR-VTT-videoTestVideo_video7705-shot1_0/img36.jpg,1417,25,0,2022-06-16_05h34.53.979,annotation,2021.2.3,Win32,60.0024001,,
,,,,,,,,,,,,,,,,,0.016666667,0.071111111,1,0,0,image_2,0,6,6,10,1,578,The man wearing a jersey with a number is in front with his arm up straight and the cheerleader to his right has her arm down.,H,0,3,MSR-VTT-videoTestVideo_video8064-shot5_0,Images/MSR-VTT-videoTestVideo_video8064-shot5_0/img0.jpg,Images/MSR-VTT-videoTestVideo_video8064-shot5_0/img3.jpg,Images/MSR-VTT-videoTestVideo_video8064-shot5_0/img10.jpg,Images/MSR-VTT-videoTestVideo_video8064-shot5_0/img26.jpg,Images/MSR-VTT-videoTestVideo_video8064-shot5_0/img31.jpg,Images/MSR-VTT-videoTestVideo_video8064-shot5_0/img34.jpg,Images/MSR-VTT-videoTestVideo_video8064-shot5_0/img37.jpg,Images/MSR-VTT-videoTestVideo_video8064-shot5_0/img39.jpg,Images/MSR-VTT-videoTestVideo_video8064-shot5_0/img41.jpg,Images/MSR-VTT-videoTestVideo_video8064-shot5_0/img43.jpg,1441,25,0,2022-06-16_05h34.53.979,annotation,2021.2.3,Win32,60.0024001,,
,,,,,,,,,,,,,,,,,-0.256666667,0.148888889,1,0,0,image_1,0,7,7,54,1,413,You can read the white text in the red rectangle on the object the boy is holding quite well.  There is no blur or glare on the text at all. ,H,0,2,video-storytelling-videochristmas_5RR_sRzKODA-shot23_7,Images/video-storytelling-videochristmas_5RR_sRzKODA-shot23_7/img300.jpg,Images/video-storytelling-videochristmas_5RR_sRzKODA-shot23_7/img305.jpg,Images/video-storytelling-videochristmas_5RR_sRzKODA-shot23_7/img307.jpg,Images/video-storytelling-videochristmas_5RR_sRzKODA-shot23_7/img311.jpg,Images/video-storytelling-videochristmas_5RR_sRzKODA-shot23_7/img313.jpg,Images/video-storytelling-videochristmas_5RR_sRzKODA-shot23_7/img317.jpg,Images/video-storytelling-videochristmas_5RR_sRzKODA-shot23_7/img319.jpg,Images/video-storytelling-videochristmas_5RR_sRzKODA-shot23_7/img321.jpg,Images/video-storytelling-videochristmas_5RR_sRzKODA-shot23_7/img326.jpg,Images/video-storytelling-videochristmas_5RR_sRzKODA-shot23_7/img329.jpg,1079,25,0,2022-06-16_05h34.53.979,annotation,2021.2.3,Win32,60.0024001,,
,,,,,,,,,,,,,,,,,-0.012222222,0.15,1,0,0,image_2,0,8,8,6,1,1656,A woman standing in front of a kitchen door.,M,0,5,YouCook-video0010-shot0_1,Images/YouCook-video0010-shot0_1/img180.jpg,Images/YouCook-video0010-shot0_1/img188.jpg,Images/YouCook-video0010-shot0_1/img194.jpg,Images/YouCook-video0010-shot0_1/img200.jpg,Images/YouCook-video0010-shot0_1/img204.jpg,Images/YouCook-video0010-shot0_1/img210.jpg,Images/YouCook-video0010-shot0_1/img216.jpg,Images/YouCook-video0010-shot0_1/img222.jpg,Images/YouCook-video0010-shot0_1/img232.jpg,Images/YouCook-video0010-shot0_1/img244.jpg,1437,25,0,2022-06-16_05h34.53.979,annotation,2021.2.3,Win32,60.0024001,,
,,,,,,,,,,,,,,,,,0.002222222,0.185555556,1,0,0,image_2,0,9,9,58,1,0,Pair of black gloves,H,,2,open-images-510_3a241cb30d6e5319,Checks/check1/open-images-225_1442c0d0ef23d58bimg3.jpg,Checks/check1/open-images-2759_3a42708fe77398b7img8.jpg,Checks/check1/open-images-510_3a241cb30d6e5319img2.jpg,Checks/check1/open-images-2209_02c98146fb93ff17img1.jpg,Checks/check1/open-images-1553_0f128317e56a9d2fimg9.jpg,Checks/check1/open-images-2666_044d7c6d11e6b493img8.jpg,Checks/check1/open-images-2880_159294646083f545img4.jpg,Checks/check1/open-images-609_2dc0baa993a2bd25img5.jpg,Checks/check1/open-images-1854_2b15616b4f1080e7img2.jpg,Checks/check1/open-images-1435_1b0ce31951048765img8.jpg,,,1,2022-06-16_05h34.53.979,annotation,2021.2.3,Win32,60.0024001,,
,,,,,,,,,,,,,,,,,-0.243333333,-0.142222222,1,0,0,image_6,0,10,10,25,1,25,"The phone is mostly the side view, and the camera is barely visible. No screen is visible.",H,0,7,MSR-VTT-videoTestVideo_video9799-shot1_0,Images/MSR-VTT-videoTestVideo_video9799-shot1_0/img0.jpg,Images/MSR-VTT-videoTestVideo_video9799-shot1_0/img24.jpg,Images/MSR-VTT-videoTestVideo_video9799-shot1_0/img34.jpg,Images/MSR-VTT-videoTestVideo_video9799-shot1_0/img36.jpg,Images/MSR-VTT-videoTestVideo_video9799-shot1_0/img37.jpg,Images/MSR-VTT-videoTestVideo_video9799-shot1_0/img38.jpg,Images/MSR-VTT-videoTestVideo_video9799-shot1_0/img39.jpg,Images/MSR-VTT-videoTestVideo_video9799-shot1_0/img43.jpg,Images/MSR-VTT-videoTestVideo_video9799-shot1_0/img46.jpg,Images/MSR-VTT-videoTestVideo_video9799-shot1_0/img49.jpg,1310,25,0,2022-06-16_05h34.53.979,annotation,2021.2.3,Win32,60.0024001,,
,,,,,,,,,,,,,,,,,0.296666667,0.212222222,1,0,0,image_3,0,11,11,1,1,394,About 3/4 of the person's hat is visible as well as their hands and most of their arms,H,0,1,video-storytelling-videobirthday__amwPjAcoC8-shot66_4,Images/video-storytelling-videobirthday__amwPjAcoC8-shot66_4/img135.jpg,Images/video-storytelling-videobirthday__amwPjAcoC8-shot66_4/img137.jpg,Images/video-storytelling-videobirthday__amwPjAcoC8-shot66_4/img139.jpg,Images/video-storytelling-videobirthday__amwPjAcoC8-shot66_4/img140.jpg,Images/video-storytelling-videobirthday__amwPjAcoC8-shot66_4/img142.jpg,Images/video-storytelling-videobirthday__amwPjAcoC8-shot66_4/img143.jpg,Images/video-storytelling-videobirthday__amwPjAcoC8-shot66_4/img147.jpg,Images/video-storytelling-videobirthday__amwPjAcoC8-shot66_4/img148.jpg,Images/video-storytelling-videobirthday__amwPjAcoC8-shot66_4/img157.jpg,Images/video-storytelling-videobirthday__amwPjAcoC8-shot66_4/img159.jpg,1624,25,0,2022-06-16_05h34.53.979,annotation,2021.2.3,Win32,60.0024001,,
,,,,,,,,,,,,,,,,,0.528888889,-0.171111111,1,0,0,image_9,0,12,12,60,1,2,Green type writer with a red tape. ,H,,9,open-images-531_0dd4eb59d465a8be,Checks/check3/open-images-503_1ccd6fa641154ebbimg7.jpg,Checks/check3/open-images-1852_00faf52058ad28b8img4.jpg,Checks/check3/open-images-386_1b2e28d6d994603eimg1.jpg,Checks/check3/open-images-471_1121e9f97c200ac0img8.jpg,Checks/check3/open-images-1886_3db71eaddb618934img8.jpg,Checks/check3/open-images-1696_20a4ebf0c0f76b05img6.jpg,Checks/check3/open-images-2447_128483a48e1552f4img6.jpg,Checks/check3/open-images-2994_9965cbf8aa20bda0img2.jpg,Checks/check3/open-images-1068_03d63613107970b3img6.jpg,Checks/check3/open-images-531_0dd4eb59d465a8beimg9.jpg,,,1,2022-06-16_05h34.53.979,annotation,2021.2.3,Win32,60.0024001,,
,,,,,,,,,,,,,,,,,-0.532222222,-0.157777778,1,0,0,image_5,0,13,13,18,1,1393,A woman jumping into the air to catch a leg.,M,1,6,MSR-VTT-videoTestVideo_video8143-shot1_1,Images/MSR-VTT-videoTestVideo_video8143-shot1_1/img39.jpg,Images/MSR-VTT-videoTestVideo_video8143-shot1_1/img48.jpg,Images/MSR-VTT-videoTestVideo_video8143-shot1_1/img51.jpg,Images/MSR-VTT-videoTestVideo_video8143-shot1_1/img59.jpg,Images/MSR-VTT-videoTestVideo_video8143-shot1_1/img63.jpg,Images/MSR-VTT-videoTestVideo_video8143-shot1_1/img65.jpg,Images/MSR-VTT-videoTestVideo_video8143-shot1_1/img70.jpg,Images/MSR-VTT-videoTestVideo_video8143-shot1_1/img77.jpg,Images/MSR-VTT-videoTestVideo_video8143-shot1_1/img87.jpg,Images/MSR-VTT-videoTestVideo_video8143-shot1_1/img94.jpg,240,25,0,2022-06-16_05h34.53.979,annotation,2021.2.3,Win32,60.0024001,,
,,,,,,,,,,,,,,,,,0.463333333,-0.198888889,1,0,0,image_9,0,14,14,55,1,1928,A couple of people standing next to each other in a room.,M,1,0,MSR-VTT-videoTestVideo_video7041-shot0_3,Images/MSR-VTT-videoTestVideo_video7041-shot0_3/img59.jpg,Images/MSR-VTT-videoTestVideo_video7041-shot0_3/img60.jpg,Images/MSR-VTT-videoTestVideo_video7041-shot0_3/img63.jpg,Images/MSR-VTT-videoTestVideo_video7041-shot0_3/img66.jpg,Images/MSR-VTT-videoTestVideo_video7041-shot0_3/img68.jpg,Images/MSR-VTT-videoTestVideo_video7041-shot0_3/img72.jpg,Images/MSR-VTT-videoTestVideo_video7041-shot0_3/img75.jpg,Images/MSR-VTT-videoTestVideo_video7041-shot0_3/img78.jpg,Images/MSR-VTT-videoTestVideo_video7041-shot0_3/img83.jpg,Images/MSR-VTT-videoTestVideo_video7041-shot0_3/img84.jpg,363,25,0,2022-06-16_05h34.53.979,annotation,2021.2.3,Win32,60.0024001,,
,,,,,,,,,,,,,,,,,-0.292222222,0.163333333,1,0,0,image_1,0,15,15,22,1,1770,A man standing next to a woman in a room.,M,0,4,MSR-VTT-videoTestVideo_video9951-shot1_0,Images/MSR-VTT-videoTestVideo_video9951-shot1_0/img0.jpg,Images/MSR-VTT-videoTestVideo_video9951-shot1_0/img3.jpg,Images/MSR-VTT-videoTestVideo_video9951-shot1_0/img6.jpg,Images/MSR-VTT-videoTestVideo_video9951-shot1_0/img9.jpg,Images/MSR-VTT-videoTestVideo_video9951-shot1_0/img12.jpg,Images/MSR-VTT-videoTestVideo_video9951-shot1_0/img17.jpg,Images/MSR-VTT-videoTestVideo_video9951-shot1_0/img23.jpg,Images/MSR-VTT-videoTestVideo_video9951-shot1_0/img33.jpg,Images/MSR-VTT-videoTestVideo_video9951-shot1_0/img37.jpg,Images/MSR-VTT-videoTestVideo_video9951-shot1_0/img41.jpg,1591,25,0,2022-06-16_05h34.53.979,annotation,2021.2.3,Win32,60.0024001,,
,,,,,,,,,,,,,,,,,-0.244444444,0.135555556,1,0,0,image_1,0,16,16,37,1,385,You can still see a lot of the pink object on the right but you can't see the dark surface that it is resting on. ,H,1,2,video-storytelling-videowedding_46xhFCXBMJs-shot39_0,Images/video-storytelling-videowedding_46xhFCXBMJs-shot39_0/img0.jpg,Images/video-storytelling-videowedding_46xhFCXBMJs-shot39_0/img23.jpg,Images/video-storytelling-videowedding_46xhFCXBMJs-shot39_0/img59.jpg,Images/video-storytelling-videowedding_46xhFCXBMJs-shot39_0/img83.jpg,Images/video-storytelling-videowedding_46xhFCXBMJs-shot39_0/img96.jpg,Images/video-storytelling-videowedding_46xhFCXBMJs-shot39_0/img101.jpg,Images/video-storytelling-videowedding_46xhFCXBMJs-shot39_0/img120.jpg,Images/video-storytelling-videowedding_46xhFCXBMJs-shot39_0/img125.jpg,Images/video-storytelling-videowedding_46xhFCXBMJs-shot39_0/img129.jpg,Images/video-storytelling-videowedding_46xhFCXBMJs-shot39_0/img135.jpg,268,25,0,2022-06-16_05h34.53.979,annotation,2021.2.3,Win32,60.0024001,,
,,,,,,,,,,,,,,,,,0.416666667,0.187777778,1,0,0,image_4,0,17,17,31,1,476,A picture of a dog at the end of a hallway.  Something is coming from the left but you can't see what it is yet. ,H,1,4,MSR-VTT-videoTestVideo_video8052-shot1_1,Images/MSR-VTT-videoTestVideo_video8052-shot1_1/img140.jpg,Images/MSR-VTT-videoTestVideo_video8052-shot1_1/img150.jpg,Images/MSR-VTT-videoTestVideo_video8052-shot1_1/img161.jpg,Images/MSR-VTT-videoTestVideo_video8052-shot1_1/img171.jpg,Images/MSR-VTT-videoTestVideo_video8052-shot1_1/img178.jpg,Images/MSR-VTT-videoTestVideo_video8052-shot1_1/img187.jpg,Images/MSR-VTT-videoTestVideo_video8052-shot1_1/img200.jpg,Images/MSR-VTT-videoTestVideo_video8052-shot1_1/img205.jpg,Images/MSR-VTT-videoTestVideo_video8052-shot1_1/img218.jpg,Images/MSR-VTT-videoTestVideo_video8052-shot1_1/img243.jpg,1039,25,0,2022-06-16_05h34.53.979,annotation,2021.2.3,Win32,60.0024001,,
,,,,,,,,,,,,,,,,,-0.208888889,-0.171111111,1,0,0,image_6,0,18,18,13,1,954,The pink thing is fully visible and there is a white oval in the corner that is fully visible.,H,0,7,MSR-VTT-videoTestVideo_video8717-shot0_0,Images/MSR-VTT-videoTestVideo_video8717-shot0_0/img0.jpg,Images/MSR-VTT-videoTestVideo_video8717-shot0_0/img1.jpg,Images/MSR-VTT-videoTestVideo_video8717-shot0_0/img3.jpg,Images/MSR-VTT-videoTestVideo_video8717-shot0_0/img4.jpg,Images/MSR-VTT-videoTestVideo_video8717-shot0_0/img5.jpg,Images/MSR-VTT-videoTestVideo_video8717-shot0_0/img6.jpg,Images/MSR-VTT-videoTestVideo_video8717-shot0_0/img8.jpg,Images/MSR-VTT-videoTestVideo_video8717-shot0_0/img9.jpg,Images/MSR-VTT-videoTestVideo_video8717-shot0_0/img12.jpg,Images/MSR-VTT-videoTestVideo_video8717-shot0_0/img17.jpg,1533,25,0,2022-06-16_05h34.53.979,annotation,2021.2.3,Win32,60.0024001,,
,,,,,,,,,,,,,,,,,0.002222222,0.118888889,1,0,0,image_2,0,19,19,61,1,3,A grey elephant with golden leaves on it. ,H,,2,open-images-1745_0ed62fe71809b2f5,Checks/check4/open-images-2609_3f72daeb23764ecfimg6.jpg,Checks/check4/open-images-1928_60679e2899870e08img1.jpg,Checks/check4/open-images-1745_0ed62fe71809b2f5img2.jpg,Checks/check4/open-images-1811_9ae6351c7f7565edimg0.jpg,Checks/check4/open-images-1721_6f04da11945ea492img3.jpg,Checks/check4/open-images-1907_5f9be3e4ea5e22c7img2.jpg,Checks/check4/open-images-580_0ddffb9c25141999img1.jpg,Checks/check4/open-images-2924_0645dcbcf998fed9img3.jpg,Checks/check4/open-images-869_856ecbcb5faf76e3img8.jpg,Checks/check4/open-images-250_02039517e63a91fbimg1.jpg,,,1,2022-06-16_05h34.53.979,annotation,2021.2.3,Win32,60.0024001,,
,,,,,,,,,,,,,,,,,-0.016666667,-0.113333333,1,0,0,image_7,0,20,20,32,1,2042,A little girl sitting at a table with a bottle of milk.,M,0,4,video-storytelling-videochristmas_5RR_sRzKODA-shot30_6,Images/video-storytelling-videochristmas_5RR_sRzKODA-shot30_6/img345.jpg,Images/video-storytelling-videochristmas_5RR_sRzKODA-shot30_6/img349.jpg,Images/video-storytelling-videochristmas_5RR_sRzKODA-shot30_6/img350.jpg,Images/video-storytelling-videochristmas_5RR_sRzKODA-shot30_6/img352.jpg,Images/video-storytelling-videochristmas_5RR_sRzKODA-shot30_6/img358.jpg,Images/video-storytelling-videochristmas_5RR_sRzKODA-shot30_6/img361.jpg,Images/video-storytelling-videochristmas_5RR_sRzKODA-shot30_6/img365.jpg,Images/video-storytelling-videochristmas_5RR_sRzKODA-shot30_6/img383.jpg,Images/video-storytelling-videochristmas_5RR_sRzKODA-shot30_6/img387.jpg,Images/video-storytelling-videochristmas_5RR_sRzKODA-shot30_6/img393.jpg,1567,25,0,2022-06-16_05h34.53.979,annotation,2021.2.3,Win32,60.0024001,,
,,,,,,,,,,,,,,,,,-0.016666667,-0.162222222,1,0,0,image_7,0,21,21,42,1,1154,A view of a metal bench with a fire extinguisher on it.,M,0,7,MSR-VTT-videoTestVideo_video8356-shot1_0,Images/MSR-VTT-videoTestVideo_video8356-shot1_0/img0.jpg,Images/MSR-VTT-videoTestVideo_video8356-shot1_0/img6.jpg,Images/MSR-VTT-videoTestVideo_video8356-shot1_0/img11.jpg,Images/MSR-VTT-videoTestVideo_video8356-shot1_0/img32.jpg,Images/MSR-VTT-videoTestVideo_video8356-shot1_0/img36.jpg,Images/MSR-VTT-videoTestVideo_video8356-shot1_0/img40.jpg,Images/MSR-VTT-videoTestVideo_video8356-shot1_0/img46.jpg,Images/MSR-VTT-videoTestVideo_video8356-shot1_0/img55.jpg,Images/MSR-VTT-videoTestVideo_video8356-shot1_0/img63.jpg,Images/MSR-VTT-videoTestVideo_video8356-shot1_0/img67.jpg,1009,25,0,2022-06-16_05h34.53.979,annotation,2021.2.3,Win32,60.0024001,,
,,,,,,,,,,,,,,,,,-0.008888889,-0.142222222,1,0,0,image_7,0,22,22,46,1,1020,The front of the yellow object on the man's head is visible as he stands back up,H,1,6,MSR-VTT-videoTestVideo_video7652-shot1_2,Images/MSR-VTT-videoTestVideo_video7652-shot1_2/img150.jpg,Images/MSR-VTT-videoTestVideo_video7652-shot1_2/img152.jpg,Images/MSR-VTT-videoTestVideo_video7652-shot1_2/img154.jpg,Images/MSR-VTT-videoTestVideo_video7652-shot1_2/img155.jpg,Images/MSR-VTT-videoTestVideo_video7652-shot1_2/img157.jpg,Images/MSR-VTT-videoTestVideo_video7652-shot1_2/img175.jpg,Images/MSR-VTT-videoTestVideo_video7652-shot1_2/img176.jpg,Images/MSR-VTT-videoTestVideo_video7652-shot1_2/img184.jpg,Images/MSR-VTT-videoTestVideo_video7652-shot1_2/img189.jpg,Images/MSR-VTT-videoTestVideo_video7652-shot1_2/img191.jpg,938,25,0,2022-06-16_05h34.53.979,annotation,2021.2.3,Win32,60.0024001,,
,,,,,,,,,,,,,,,,,0.277777778,-0.158888889,1,0,0,image_8,0,23,23,40,1,1137,A woman standing in front of a television set.,M,0,7,MSR-VTT-videoTestVideo_video8781-shot0_1,Images/MSR-VTT-videoTestVideo_video8781-shot0_1/img133.jpg,Images/MSR-VTT-videoTestVideo_video8781-shot0_1/img155.jpg,Images/MSR-VTT-videoTestVideo_video8781-shot0_1/img202.jpg,Images/MSR-VTT-videoTestVideo_video8781-shot0_1/img209.jpg,Images/MSR-VTT-videoTestVideo_video8781-shot0_1/img247.jpg,Images/MSR-VTT-videoTestVideo_video8781-shot0_1/img256.jpg,Images/MSR-VTT-videoTestVideo_video8781-shot0_1/img257.jpg,Images/MSR-VTT-videoTestVideo_video8781-shot0_1/img263.jpg,Images/MSR-VTT-videoTestVideo_video8781-shot0_1/img269.jpg,Images/MSR-VTT-videoTestVideo_video8781-shot0_1/img299.jpg,87,25,0,2022-06-16_05h34.53.979,annotation,2021.2.3,Win32,60.0024001,,
,,,,,,,,,,,,,,,,,-0.456666667,-0.134444444,1,0,0,image_5,0,24,24,39,1,454,The man in front of the woman has his arms straight up and is obscuring the green light.,H,1,2,MSR-VTT-videoTestVideo_video7663-shot3_0,Images/MSR-VTT-videoTestVideo_video7663-shot3_0/img0.jpg,Images/MSR-VTT-videoTestVideo_video7663-shot3_0/img12.jpg,Images/MSR-VTT-videoTestVideo_video7663-shot3_0/img22.jpg,Images/MSR-VTT-videoTestVideo_video7663-shot3_0/img23.jpg,Images/MSR-VTT-videoTestVideo_video7663-shot3_0/img25.jpg,Images/MSR-VTT-videoTestVideo_video7663-shot3_0/img29.jpg,Images/MSR-VTT-videoTestVideo_video7663-shot3_0/img32.jpg,Images/MSR-VTT-videoTestVideo_video7663-shot3_0/img35.jpg,Images/MSR-VTT-videoTestVideo_video7663-shot3_0/img37.jpg,Images/MSR-VTT-videoTestVideo_video7663-shot3_0/img40.jpg,1371,25,0,2022-06-16_05h34.53.979,annotation,2021.2.3,Win32,60.0024001,,
,,,,,,,,,,,,,,,,,0.054444444,-0.094444444,1,0,0,image_7,0,25,25,2,1,743,The man in the middle is leaning slightly forward with an outstretched arm and his mouth is open,H,0,4,MSR-VTT-videoTestVideo_video9823-shot7_0,Images/MSR-VTT-videoTestVideo_video9823-shot7_0/img0.jpg,Images/MSR-VTT-videoTestVideo_video9823-shot7_0/img1.jpg,Images/MSR-VTT-videoTestVideo_video9823-shot7_0/img3.jpg,Images/MSR-VTT-videoTestVideo_video9823-shot7_0/img9.jpg,Images/MSR-VTT-videoTestVideo_video9823-shot7_0/img13.jpg,Images/MSR-VTT-videoTestVideo_video9823-shot7_0/img18.jpg,Images/MSR-VTT-videoTestVideo_video9823-shot7_0/img23.jpg,Images/MSR-VTT-videoTestVideo_video9823-shot7_0/img32.jpg,Images/MSR-VTT-videoTestVideo_video9823-shot7_0/img39.jpg,Images/MSR-VTT-videoTestVideo_video9823-shot7_0/img42.jpg,58,25,0,2022-06-16_05h34.53.979,annotation,2021.2.3,Win32,60.0024001,,
,,,,,,,,,,,,,,,,,0.207777778,-0.14,1,0,0,image_8,0,26,26,43,1,11,A group of dancers on the dance floor.  The girl in the autumn dress is facing the blonde boy in blue.,H,0,8,MSR-VTT-videoTestVideo_video7041-shot1_1,Images/MSR-VTT-videoTestVideo_video7041-shot1_1/img59.jpg,Images/MSR-VTT-videoTestVideo_video7041-shot1_1/img62.jpg,Images/MSR-VTT-videoTestVideo_video7041-shot1_1/img72.jpg,Images/MSR-VTT-videoTestVideo_video7041-shot1_1/img74.jpg,Images/MSR-VTT-videoTestVideo_video7041-shot1_1/img77.jpg,Images/MSR-VTT-videoTestVideo_video7041-shot1_1/img84.jpg,Images/MSR-VTT-videoTestVideo_video7041-shot1_1/img92.jpg,Images/MSR-VTT-videoTestVideo_video7041-shot1_1/img97.jpg,Images/MSR-VTT-videoTestVideo_video7041-shot1_1/img99.jpg,Images/MSR-VTT-videoTestVideo_video7041-shot1_1/img108.jpg,491,25,0,2022-06-16_05h34.53.979,annotation,2021.2.3,Win32,60.0024001,,
,,,,,,,,,,,,,,,,,-0.228888889,-0.174444444,1,0,0,image_6,0,27,27,26,1,641,The man in the center's left leg is completely blocked by his right leg. ,H,0,2,MSR-VTT-videoTestVideo_video7030-shot1_0,Images/MSR-VTT-videoTestVideo_video7030-shot1_0/img0.jpg,Images/MSR-VTT-videoTestVideo_video7030-shot1_0/img13.jpg,Images/MSR-VTT-videoTestVideo_video7030-shot1_0/img19.jpg,Images/MSR-VTT-videoTestVideo_video7030-shot1_0/img34.jpg,Images/MSR-VTT-videoTestVideo_video7030-shot1_0/img62.jpg,Images/MSR-VTT-videoTestVideo_video7030-shot1_0/img91.jpg,Images/MSR-VTT-videoTestVideo_video7030-shot1_0/img99.jpg,Images/MSR-VTT-videoTestVideo_video7030-shot1_0/img106.jpg,Images/MSR-VTT-videoTestVideo_video7030-shot1_0/img157.jpg,Images/MSR-VTT-videoTestVideo_video7030-shot1_0/img183.jpg,1439,25,0,2022-06-16_05h34.53.979,annotation,2021.2.3,Win32,60.0024001,,
,,,,,,,,,,,,,,,,,-0.45,0.175555556,1,0,0,image_0,0,28,28,34,1,54,Spoon is being inserted into a small bowl.,H,0,4,MSR-VTT-videoTestVideo_video7254-shot1_6,Images/MSR-VTT-videoTestVideo_video7254-shot1_6/img186.jpg,Images/MSR-VTT-videoTestVideo_video7254-shot1_6/img189.jpg,Images/MSR-VTT-videoTestVideo_video7254-shot1_6/img191.jpg,Images/MSR-VTT-videoTestVideo_video7254-shot1_6/img193.jpg,Images/MSR-VTT-videoTestVideo_video7254-shot1_6/img196.jpg,Images/MSR-VTT-videoTestVideo_video7254-shot1_6/img203.jpg,Images/MSR-VTT-videoTestVideo_video7254-shot1_6/img204.jpg,Images/MSR-VTT-videoTestVideo_video7254-shot1_6/img205.jpg,Images/MSR-VTT-videoTestVideo_video7254-shot1_6/img207.jpg,Images/MSR-VTT-videoTestVideo_video7254-shot1_6/img208.jpg,821,25,0,2022-06-16_05h34.53.979,annotation,2021.2.3,Win32,60.0024001,,
,,,,,,,,,,,,,,,,,0.463333333,0.171111111,1,0,0,image_4,0,29,29,30,1,1315,a close up of a woman with a ponytail.,M,0,4,MSR-VTT-videoTestVideo_video9454-shot0_2,Images/MSR-VTT-videoTestVideo_video9454-shot0_2/img515.jpg,Images/MSR-VTT-videoTestVideo_video9454-shot0_2/img532.jpg,Images/MSR-VTT-videoTestVideo_video9454-shot0_2/img538.jpg,Images/MSR-VTT-videoTestVideo_video9454-shot0_2/img564.jpg,Images/MSR-VTT-videoTestVideo_video9454-shot0_2/img584.jpg,Images/MSR-VTT-videoTestVideo_video9454-shot0_2/img622.jpg,Images/MSR-VTT-videoTestVideo_video9454-shot0_2/img630.jpg,Images/MSR-VTT-videoTestVideo_video9454-shot0_2/img640.jpg,Images/MSR-VTT-videoTestVideo_video9454-shot0_2/img645.jpg,Images/MSR-VTT-videoTestVideo_video9454-shot0_2/img648.jpg,670,25,0,2022-06-16_05h34.53.979,annotation,2021.2.3,Win32,60.0024001,,
,,,,,,,,,,,,,,,,,0.291111111,-0.15,1,0,0,image_8,0,30,30,27,1,1366,A person is holding a remote control in their hand.,M,0,8,MSR-VTT-videoTestVideo_video8765-shot1_2,Images/MSR-VTT-videoTestVideo_video8765-shot1_2/img51.jpg,Images/MSR-VTT-videoTestVideo_video8765-shot1_2/img56.jpg,Images/MSR-VTT-videoTestVideo_video8765-shot1_2/img64.jpg,Images/MSR-VTT-videoTestVideo_video8765-shot1_2/img76.jpg,Images/MSR-VTT-videoTestVideo_video8765-shot1_2/img88.jpg,Images/MSR-VTT-videoTestVideo_video8765-shot1_2/img113.jpg,Images/MSR-VTT-videoTestVideo_video8765-shot1_2/img120.jpg,Images/MSR-VTT-videoTestVideo_video8765-shot1_2/img143.jpg,Images/MSR-VTT-videoTestVideo_video8765-shot1_2/img173.jpg,Images/MSR-VTT-videoTestVideo_video8765-shot1_2/img181.jpg,108,25,0,2022-06-16_05h34.53.979,annotation,2021.2.3,Win32,60.0024001,,
,,,,,,,,,,,,,,,,,0.47,0.112222222,1,0,0,image_4,0,31,31,56,1,226,two men are standing over a table of food and the chef is about to drink from a yellow container,H,0,3,MSR-VTT-videoTestVideo_video7362-shot1_1,Images/MSR-VTT-videoTestVideo_video7362-shot1_1/img129.jpg,Images/MSR-VTT-videoTestVideo_video7362-shot1_1/img136.jpg,Images/MSR-VTT-videoTestVideo_video7362-shot1_1/img156.jpg,Images/MSR-VTT-videoTestVideo_video7362-shot1_1/img191.jpg,Images/MSR-VTT-videoTestVideo_video7362-shot1_1/img230.jpg,Images/MSR-VTT-videoTestVideo_video7362-shot1_1/img233.jpg,Images/MSR-VTT-videoTestVideo_video7362-shot1_1/img248.jpg,Images/MSR-VTT-videoTestVideo_video7362-shot1_1/img275.jpg,Images/MSR-VTT-videoTestVideo_video7362-shot1_1/img277.jpg,Images/MSR-VTT-videoTestVideo_video7362-shot1_1/img281.jpg,382,25,0,2022-06-16_05h34.53.979,annotation,2021.2.3,Win32,60.0024001,,
,,,,,,,,,,,,,,,,,0.008888889,0.21,1,0,0,image_2,0,32,32,17,1,1948,Two people standing next to each other on a tennis court.,M,0,7,MSR-VTT-videoTestVideo_video9375-shot1_4,Images/MSR-VTT-videoTestVideo_video9375-shot1_4/img384.jpg,Images/MSR-VTT-videoTestVideo_video9375-shot1_4/img397.jpg,Images/MSR-VTT-videoTestVideo_video9375-shot1_4/img473.jpg,Images/MSR-VTT-videoTestVideo_video9375-shot1_4/img489.jpg,Images/MSR-VTT-videoTestVideo_video9375-shot1_4/img506.jpg,Images/MSR-VTT-videoTestVideo_video9375-shot1_4/img522.jpg,Images/MSR-VTT-videoTestVideo_video9375-shot1_4/img540.jpg,Images/MSR-VTT-videoTestVideo_video9375-shot1_4/img555.jpg,Images/MSR-VTT-videoTestVideo_video9375-shot1_4/img572.jpg,Images/MSR-VTT-videoTestVideo_video9375-shot1_4/img620.jpg,474,25,0,2022-06-16_05h34.53.979,annotation,2021.2.3,Win32,60.0024001,,
,,,,,,,,,,,,,,,,,-0.268888889,0.148888889,1,0,0,image_1,0,33,33,20,1,1407,A man standing in a room with a hat on his head.,M,0,0,video-storytelling-videocamping_dBXYM3dQTSo-shot81_0,Images/video-storytelling-videocamping_dBXYM3dQTSo-shot81_0/img0.jpg,Images/video-storytelling-videocamping_dBXYM3dQTSo-shot81_0/img11.jpg,Images/video-storytelling-videocamping_dBXYM3dQTSo-shot81_0/img23.jpg,Images/video-storytelling-videocamping_dBXYM3dQTSo-shot81_0/img27.jpg,Images/video-storytelling-videocamping_dBXYM3dQTSo-shot81_0/img29.jpg,Images/video-storytelling-videocamping_dBXYM3dQTSo-shot81_0/img32.jpg,Images/video-storytelling-videocamping_dBXYM3dQTSo-shot81_0/img35.jpg,Images/video-storytelling-videocamping_dBXYM3dQTSo-shot81_0/img38.jpg,Images/video-storytelling-videocamping_dBXYM3dQTSo-shot81_0/img50.jpg,Images/video-storytelling-videocamping_dBXYM3dQTSo-shot81_0/img57.jpg,236,25,0,2022-06-16_05h34.53.979,annotation,2021.2.3,Win32,60.0024001,,
,,,,,,,,,,,,,,,,,-0.463333333,0.077777778,1,0,0,image_0,0,34,34,21,1,304,the girl is biting her lip and the blue balloon is not visible.,H,0,2,video-storytelling-videobirthday__amwPjAcoC8-shot81_0,Images/video-storytelling-videobirthday__amwPjAcoC8-shot81_0/img0.jpg,Images/video-storytelling-videobirthday__amwPjAcoC8-shot81_0/img13.jpg,Images/video-storytelling-videobirthday__amwPjAcoC8-shot81_0/img23.jpg,Images/video-storytelling-videobirthday__amwPjAcoC8-shot81_0/img33.jpg,Images/video-storytelling-videobirthday__amwPjAcoC8-shot81_0/img43.jpg,Images/video-storytelling-videobirthday__amwPjAcoC8-shot81_0/img49.jpg,Images/video-storytelling-videobirthday__amwPjAcoC8-shot81_0/img53.jpg,Images/video-storytelling-videobirthday__amwPjAcoC8-shot81_0/img58.jpg,Images/video-storytelling-videobirthday__amwPjAcoC8-shot81_0/img60.jpg,Images/video-storytelling-videobirthday__amwPjAcoC8-shot81_0/img67.jpg,571,25,0,2022-06-16_05h34.53.979,annotation,2021.2.3,Win32,60.0024001,,
,,,,,,,,,,,,,,,,,0.18,0.144444444,1,0,0,image_3,0,35,35,44,1,1162,A bowl filled with some sort of sauce on top of a plate.,M,0,3,MSR-VTT-videoTestVideo_video8654-shot1_0,Images/MSR-VTT-videoTestVideo_video8654-shot1_0/img0.jpg,Images/MSR-VTT-videoTestVideo_video8654-shot1_0/img5.jpg,Images/MSR-VTT-videoTestVideo_video8654-shot1_0/img51.jpg,Images/MSR-VTT-videoTestVideo_video8654-shot1_0/img60.jpg,Images/MSR-VTT-videoTestVideo_video8654-shot1_0/img64.jpg,Images/MSR-VTT-videoTestVideo_video8654-shot1_0/img75.jpg,Images/MSR-VTT-videoTestVideo_video8654-shot1_0/img76.jpg,Images/MSR-VTT-videoTestVideo_video8654-shot1_0/img79.jpg,Images/MSR-VTT-videoTestVideo_video8654-shot1_0/img83.jpg,Images/MSR-VTT-videoTestVideo_video8654-shot1_0/img87.jpg,1359,25,0,2022-06-16_05h34.53.979,annotation,2021.2.3,Win32,60.0024001,,
,,,,,,,,,,,,,,,,,0.054444444,-0.187777778,1,0,0,image_7,0,36,36,36,1,1306,A group of people standing next to a horse.,M,1,9,MSR-VTT-videoTestVideo_video7184-shot1_0,Images/MSR-VTT-videoTestVideo_video7184-shot1_0/img0.jpg,Images/MSR-VTT-videoTestVideo_video7184-shot1_0/img11.jpg,Images/MSR-VTT-videoTestVideo_video7184-shot1_0/img21.jpg,Images/MSR-VTT-videoTestVideo_video7184-shot1_0/img133.jpg,Images/MSR-VTT-videoTestVideo_video7184-shot1_0/img167.jpg,Images/MSR-VTT-videoTestVideo_video7184-shot1_0/img179.jpg,Images/MSR-VTT-videoTestVideo_video7184-shot1_0/img185.jpg,Images/MSR-VTT-videoTestVideo_video7184-shot1_0/img206.jpg,Images/MSR-VTT-videoTestVideo_video7184-shot1_0/img221.jpg,Images/MSR-VTT-videoTestVideo_video7184-shot1_0/img235.jpg,991,25,0,2022-06-16_05h34.53.979,annotation,2021.2.3,Win32,60.0024001,,
,,,,,,,,,,,,,,,,,-0.031111111,-0.105555556,1,0,0,image_7,0,37,37,8,1,968,The boy is facing right but is turning forward. The woman's face is covered by the boy's head in this photo.,H,0,9,video-storytelling-videowedding_Bp8t824h5NE-shot46_0,Images/video-storytelling-videowedding_Bp8t824h5NE-shot46_0/img0.jpg,Images/video-storytelling-videowedding_Bp8t824h5NE-shot46_0/img9.jpg,Images/video-storytelling-videowedding_Bp8t824h5NE-shot46_0/img20.jpg,Images/video-storytelling-videowedding_Bp8t824h5NE-shot46_0/img27.jpg,Images/video-storytelling-videowedding_Bp8t824h5NE-shot46_0/img39.jpg,Images/video-storytelling-videowedding_Bp8t824h5NE-shot46_0/img50.jpg,Images/video-storytelling-videowedding_Bp8t824h5NE-shot46_0/img61.jpg,Images/video-storytelling-videowedding_Bp8t824h5NE-shot46_0/img65.jpg,Images/video-storytelling-videowedding_Bp8t824h5NE-shot46_0/img76.jpg,Images/video-storytelling-videowedding_Bp8t824h5NE-shot46_0/img81.jpg,697,25,0,2022-06-16_05h34.53.979,annotation,2021.2.3,Win32,60.0024001,,
,,,,,,,,,,,,,,,,,0.031111111,0.142222222,1,0,0,image_2,0,38,38,29,1,579,There is equal overlay between two pictures.  One is of a picture of a man with a hat and the other is of a man fishing. ,H,0,2,MSR-VTT-videoTestVideo_video8025-shot1_0,Images/MSR-VTT-videoTestVideo_video8025-shot1_0/img0.jpg,Images/MSR-VTT-videoTestVideo_video8025-shot1_0/img12.jpg,Images/MSR-VTT-videoTestVideo_video8025-shot1_0/img17.jpg,Images/MSR-VTT-videoTestVideo_video8025-shot1_0/img20.jpg,Images/MSR-VTT-videoTestVideo_video8025-shot1_0/img22.jpg,Images/MSR-VTT-videoTestVideo_video8025-shot1_0/img25.jpg,Images/MSR-VTT-videoTestVideo_video8025-shot1_0/img65.jpg,Images/MSR-VTT-videoTestVideo_video8025-shot1_0/img69.jpg,Images/MSR-VTT-videoTestVideo_video8025-shot1_0/img72.jpg,Images/MSR-VTT-videoTestVideo_video8025-shot1_0/img80.jpg,342,25,0,2022-06-16_05h34.53.979,annotation,2021.2.3,Win32,60.0024001,,
,,,,,,,,,,,,,,,,,0.521111111,-0.181111111,1,0,0,image_9,0,39,39,50,1,209,The man in the woman's costume is talking with his mouth open.,H,0,9,MSR-VTT-videoTestVideo_video8337-shot1_0,Images/MSR-VTT-videoTestVideo_video8337-shot1_0/img0.jpg,Images/MSR-VTT-videoTestVideo_video8337-shot1_0/img9.jpg,Images/MSR-VTT-videoTestVideo_video8337-shot1_0/img10.jpg,Images/MSR-VTT-videoTestVideo_video8337-shot1_0/img19.jpg,Images/MSR-VTT-videoTestVideo_video8337-shot1_0/img34.jpg,Images/MSR-VTT-videoTestVideo_video8337-shot1_0/img44.jpg,Images/MSR-VTT-videoTestVideo_video8337-shot1_0/img63.jpg,Images/MSR-VTT-videoTestVideo_video8337-shot1_0/img66.jpg,Images/MSR-VTT-videoTestVideo_video8337-shot1_0/img67.jpg,Images/MSR-VTT-videoTestVideo_video8337-shot1_0/img74.jpg,633,25,0,2022-06-16_05h34.53.979,annotation,2021.2.3,Win32,60.0024001,,
,,,,,,,,,,,,,,,,,-0.25,-0.151111111,1,0,0,image_6,0,40,40,53,1,1637,A couple of men kissing each other on the beach.,M,0,8,MSR-VTT-videoTestVideo_video7844-shot4_0,Images/MSR-VTT-videoTestVideo_video7844-shot4_0/img0.jpg,Images/MSR-VTT-videoTestVideo_video7844-shot4_0/img6.jpg,Images/MSR-VTT-videoTestVideo_video7844-shot4_0/img13.jpg,Images/MSR-VTT-videoTestVideo_video7844-shot4_0/img16.jpg,Images/MSR-VTT-videoTestVideo_video7844-shot4_0/img21.jpg,Images/MSR-VTT-videoTestVideo_video7844-shot4_0/img23.jpg,Images/MSR-VTT-videoTestVideo_video7844-shot4_0/img26.jpg,Images/MSR-VTT-videoTestVideo_video7844-shot4_0/img30.jpg,Images/MSR-VTT-videoTestVideo_video7844-shot4_0/img33.jpg,Images/MSR-VTT-videoTestVideo_video7844-shot4_0/img38.jpg,405,25,0,2022-06-16_05h34.53.979,annotation,2021.2.3,Win32,60.0024001,,
,,,,,,,,,,,,,,,,,-0.485555556,0.157777778,1,0,0,image_0,0,41,41,4,1,1454,A close up of a person's hair on a wire.,M,1,0,MSR-VTT-videoTestVideo_video9600-shot3_0,Images/MSR-VTT-videoTestVideo_video9600-shot3_0/img0.jpg,Images/MSR-VTT-videoTestVideo_video9600-shot3_0/img5.jpg,Images/MSR-VTT-videoTestVideo_video9600-shot3_0/img6.jpg,Images/MSR-VTT-videoTestVideo_video9600-shot3_0/img7.jpg,Images/MSR-VTT-videoTestVideo_video9600-shot3_0/img10.jpg,Images/MSR-VTT-videoTestVideo_video9600-shot3_0/img11.jpg,Images/MSR-VTT-videoTestVideo_video9600-shot3_0/img12.jpg,Images/MSR-VTT-videoTestVideo_video9600-shot3_0/img14.jpg,Images/MSR-VTT-videoTestVideo_video9600-shot3_0/img19.jpg,Images/MSR-VTT-videoTestVideo_video9600-shot3_0/img21.jpg,1247,25,0,2022-06-16_05h34.53.979,annotation,2021.2.3,Win32,60.0024001,,
,,,,,,,,,,,,,,,,,-0.534444444,-0.128888889,1,0,0,image_5,0,42,42,23,1,1372,A close up of a motorcycle parked on the side of a road.,M,0,7,MSR-VTT-videoTestVideo_video9996-shot1_3,Images/MSR-VTT-videoTestVideo_video9996-shot1_3/img163.jpg,Images/MSR-VTT-videoTestVideo_video9996-shot1_3/img168.jpg,Images/MSR-VTT-videoTestVideo_video9996-shot1_3/img171.jpg,Images/MSR-VTT-videoTestVideo_video9996-shot1_3/img174.jpg,Images/MSR-VTT-videoTestVideo_video9996-shot1_3/img178.jpg,Images/MSR-VTT-videoTestVideo_video9996-shot1_3/img183.jpg,Images/MSR-VTT-videoTestVideo_video9996-shot1_3/img194.jpg,Images/MSR-VTT-videoTestVideo_video9996-shot1_3/img209.jpg,Images/MSR-VTT-videoTestVideo_video9996-shot1_3/img219.jpg,Images/MSR-VTT-videoTestVideo_video9996-shot1_3/img222.jpg,235,25,0,2022-06-16_05h34.53.979,annotation,2021.2.3,Win32,60.0024001,,
,,,,,,,,,,,,,,,,,-0.235555556,-0.202222222,1,0,0,image_6,0,43,43,52,1,313,The very top left corner seems to vanish,H,0,2,MSR-VTT-videoTestVideo_video9983-shot1_0,Images/MSR-VTT-videoTestVideo_video9983-shot1_0/img0.jpg,Images/MSR-VTT-videoTestVideo_video9983-shot1_0/img363.jpg,Images/MSR-VTT-videoTestVideo_video9983-shot1_0/img465.jpg,Images/MSR-VTT-videoTestVideo_video9983-shot1_0/img466.jpg,Images/MSR-VTT-videoTestVideo_video9983-shot1_0/img467.jpg,Images/MSR-VTT-videoTestVideo_video9983-shot1_0/img469.jpg,Images/MSR-VTT-videoTestVideo_video9983-shot1_0/img489.jpg,Images/MSR-VTT-videoTestVideo_video9983-shot1_0/img494.jpg,Images/MSR-VTT-videoTestVideo_video9983-shot1_0/img527.jpg,Images/MSR-VTT-videoTestVideo_video9983-shot1_0/img579.jpg,2033,25,0,2022-06-16_05h34.53.979,annotation,2021.2.3,Win32,60.0024001,,
,,,,,,,,,,,,,,,,,-0.226666667,-0.121111111,1,0,0,image_6,0,44,44,0,1,1318,A little girl reaching for a bowl of apples.,M,1,8,video-storytelling-videochristmas_5RR_sRzKODA-shot36_2,Images/video-storytelling-videochristmas_5RR_sRzKODA-shot36_2/img94.jpg,Images/video-storytelling-videochristmas_5RR_sRzKODA-shot36_2/img97.jpg,Images/video-storytelling-videochristmas_5RR_sRzKODA-shot36_2/img100.jpg,Images/video-storytelling-videochristmas_5RR_sRzKODA-shot36_2/img103.jpg,Images/video-storytelling-videochristmas_5RR_sRzKODA-shot36_2/img121.jpg,Images/video-storytelling-videochristmas_5RR_sRzKODA-shot36_2/img126.jpg,Images/video-storytelling-videochristmas_5RR_sRzKODA-shot36_2/img130.jpg,Images/video-storytelling-videochristmas_5RR_sRzKODA-shot36_2/img132.jpg,Images/video-storytelling-videochristmas_5RR_sRzKODA-shot36_2/img138.jpg,Images/video-storytelling-videochristmas_5RR_sRzKODA-shot36_2/img144.jpg,1852,25,0,2022-06-16_05h34.53.979,annotation,2021.2.3,Win32,60.0024001,,
,,,,,,,,,,,,,,,,,-0.514444444,0.13,1,0,0,image_0,0,45,45,45,1,1825,A photo of a dog and a fire hydrant.,M,0,5,MSR-VTT-videoTestVideo_video8356-shot1_8,Images/MSR-VTT-videoTestVideo_video8356-shot1_8/img602.jpg,Images/MSR-VTT-videoTestVideo_video8356-shot1_8/img624.jpg,Images/MSR-VTT-videoTestVideo_video8356-shot1_8/img627.jpg,Images/MSR-VTT-videoTestVideo_video8356-shot1_8/img657.jpg,Images/MSR-VTT-videoTestVideo_video8356-shot1_8/img675.jpg,Images/MSR-VTT-videoTestVideo_video8356-shot1_8/img700.jpg,Images/MSR-VTT-videoTestVideo_video8356-shot1_8/img715.jpg,Images/MSR-VTT-videoTestVideo_video8356-shot1_8/img751.jpg,Images/MSR-VTT-videoTestVideo_video8356-shot1_8/img764.jpg,Images/MSR-VTT-videoTestVideo_video8356-shot1_8/img799.jpg,778,25,0,2022-06-16_05h34.53.979,annotation,2021.2.3,Win32,60.0024001,,
,,,,,,,,,,,,,,,,,-0.277777778,0.126666667,1,0,0,image_1,0,46,46,51,1,267,You can't see the nose of the boy holding the camera.  More grey than black of the boy's hat is showing. ,H,0,1,video-storytelling-videochristmas_5RR_sRzKODA-shot23_17,Images/video-storytelling-videochristmas_5RR_sRzKODA-shot23_17/img682.jpg,Images/video-storytelling-videochristmas_5RR_sRzKODA-shot23_17/img684.jpg,Images/video-storytelling-videochristmas_5RR_sRzKODA-shot23_17/img693.jpg,Images/video-storytelling-videochristmas_5RR_sRzKODA-shot23_17/img697.jpg,Images/video-storytelling-videochristmas_5RR_sRzKODA-shot23_17/img701.jpg,Images/video-storytelling-videochristmas_5RR_sRzKODA-shot23_17/img702.jpg,Images/video-storytelling-videochristmas_5RR_sRzKODA-shot23_17/img703.jpg,Images/video-storytelling-videochristmas_5RR_sRzKODA-shot23_17/img705.jpg,Images/video-storytelling-videochristmas_5RR_sRzKODA-shot23_17/img707.jpg,Images/video-storytelling-videochristmas_5RR_sRzKODA-shot23_17/img708.jpg,809,25,0,2022-06-16_05h34.53.979,annotation,2021.2.3,Win32,60.0024001,,
,,,,,,,,,,,,,,,,,-0.244444444,0.167777778,1,0,0,image_1,0,47,47,5,1,1184,A woman with a hat on her head and a hat on her head.,M,0,3,MSR-VTT-videoTestVideo_video8115-shot1_0,Images/MSR-VTT-videoTestVideo_video8115-shot1_0/img0.jpg,Images/MSR-VTT-videoTestVideo_video8115-shot1_0/img13.jpg,Images/MSR-VTT-videoTestVideo_video8115-shot1_0/img79.jpg,Images/MSR-VTT-videoTestVideo_video8115-shot1_0/img129.jpg,Images/MSR-VTT-videoTestVideo_video8115-shot1_0/img145.jpg,Images/MSR-VTT-videoTestVideo_video8115-shot1_0/img178.jpg,Images/MSR-VTT-videoTestVideo_video8115-shot1_0/img191.jpg,Images/MSR-VTT-videoTestVideo_video8115-shot1_0/img207.jpg,Images/MSR-VTT-videoTestVideo_video8115-shot1_0/img228.jpg,Images/MSR-VTT-videoTestVideo_video8115-shot1_0/img243.jpg,1691,25,0,2022-06-16_05h34.53.979,annotation,2021.2.3,Win32,60.0024001,,
,,,,,,,,,,,,,,,,,0.252222222,-0.146666667,1,0,0,image_8,0,48,48,28,1,1725,A group of children sitting at a table with cake.,M,0,8,video-storytelling-videobirthday__amwPjAcoC8-shot21_0,Images/video-storytelling-videobirthday__amwPjAcoC8-shot21_0/img0.jpg,Images/video-storytelling-videobirthday__amwPjAcoC8-shot21_0/img6.jpg,Images/video-storytelling-videobirthday__amwPjAcoC8-shot21_0/img9.jpg,Images/video-storytelling-videobirthday__amwPjAcoC8-shot21_0/img16.jpg,Images/video-storytelling-videobirthday__amwPjAcoC8-shot21_0/img24.jpg,Images/video-storytelling-videobirthday__amwPjAcoC8-shot21_0/img41.jpg,Images/video-storytelling-videobirthday__amwPjAcoC8-shot21_0/img45.jpg,Images/video-storytelling-videobirthday__amwPjAcoC8-shot21_0/img54.jpg,Images/video-storytelling-videobirthday__amwPjAcoC8-shot21_0/img59.jpg,Images/video-storytelling-videobirthday__amwPjAcoC8-shot21_0/img66.jpg,1316,25,0,2022-06-16_05h34.53.979,annotation,2021.2.3,Win32,60.0024001,,
,,,,,,,,,,,,,,,,,-0.237777778,0.185555556,1,0,0,image_1,0,49,49,62,1,4,A penguin holding a piece of paper with text on it. ,H,,1,open-images-2521_074d6af730ed17a6,Checks/check5/open-images-509_4d8bd994cb8c6eaeimg0.jpg,Checks/check5/open-images-2521_074d6af730ed17a6img1.jpg,Checks/check5/open-images-1365_a00a5fde334ae45aimg4.jpg,Checks/check5/open-images-1602_44092afdeab39e73img6.jpg,Checks/check5/open-images-1032_059f3cdfb85ee0ceimg3.jpg,Checks/check5/open-images-727_25b77fff36adba66img2.jpg,Checks/check5/open-images-2208_0fb92b9978d98575img2.jpg,Checks/check5/open-images-1305_05769e6abb16fdc8img9.jpg,Checks/check5/open-images-2676_052dbf7b4899430bimg1.jpg,Checks/check5/open-images-2569_1e81d79bb796a2dbimg7.jpg,,,1,2022-06-16_05h34.53.979,annotation,2021.2.3,Win32,60.0024001,,
,,,,,,,,,,,,,,,,,-0.422222222,-0.116666667,1,0,0,image_5,0,50,50,59,1,1,The only picture of a hawk.  It is looking to the left.  You see lots of branches and darker blue sky. ,H,,5,open-images-958_686caac9c5b322e7,Checks/check2/open-images-2603_1b5152f01f0093e7img3.jpg,Checks/check2/open-images-1836_069810916ce5d675img8.jpg,Checks/check2/open-images-974_0748fdedc4bf8b7bimg2.jpg,Checks/check2/open-images-617_01fb725fb1aa7b04img6.jpg,Checks/check2/open-images-507_047769e1f977cd97img2.jpg,Checks/check2/open-images-958_686caac9c5b322e7img5.jpg,Checks/check2/open-images-1278_21851d9bf5dc05c9img7.jpg,Checks/check2/open-images-2424_05f04546e01499f2img0.jpg,Checks/check2/open-images-1529_1442b11a10a6aeadimg3.jpg,Checks/check2/open-images-514_2c523ddedc2561d4img1.jpg,,,1,2022-06-16_05h34.53.979,annotation,2021.2.3,Win32,60.0024001,,
,,,,,,,,,,,,,,,,,-0.013333333,0.153333333,1,0,0,image_2,0,51,51,49,1,398,Only a little bit of the table like object that was seen that has a green base is seen in the very lower left corner of the image. ,H,0,7,MSR-VTT-videoTestVideo_video8203-shot1_2,Images/MSR-VTT-videoTestVideo_video8203-shot1_2/img109.jpg,Images/MSR-VTT-videoTestVideo_video8203-shot1_2/img112.jpg,Images/MSR-VTT-videoTestVideo_video8203-shot1_2/img116.jpg,Images/MSR-VTT-videoTestVideo_video8203-shot1_2/img120.jpg,Images/MSR-VTT-videoTestVideo_video8203-shot1_2/img123.jpg,Images/MSR-VTT-videoTestVideo_video8203-shot1_2/img133.jpg,Images/MSR-VTT-videoTestVideo_video8203-shot1_2/img141.jpg,Images/MSR-VTT-videoTestVideo_video8203-shot1_2/img150.jpg,Images/MSR-VTT-videoTestVideo_video8203-shot1_2/img160.jpg,Images/MSR-VTT-videoTestVideo_video8203-shot1_2/img188.jpg,62,25,0,2022-06-16_05h34.53.979,annotation,2021.2.3,Win32,60.0024001,,
,,,,,,,,,,,,,,,,,-0.25,0.153333333,1,0,0,image_1,0,52,52,38,1,609,the girl on pink sitting on the floor on the right edge of the image can be seen with only her left finger off the image,H,1,3,video-storytelling-videochristmas_5RR_sRzKODA-shot21_0,Images/video-storytelling-videochristmas_5RR_sRzKODA-shot21_0/img0.jpg,Images/video-storytelling-videochristmas_5RR_sRzKODA-shot21_0/img3.jpg,Images/video-storytelling-videochristmas_5RR_sRzKODA-shot21_0/img5.jpg,Images/video-storytelling-videochristmas_5RR_sRzKODA-shot21_0/img12.jpg,Images/video-storytelling-videochristmas_5RR_sRzKODA-shot21_0/img16.jpg,Images/video-storytelling-videochristmas_5RR_sRzKODA-shot21_0/img20.jpg,Images/video-storytelling-videochristmas_5RR_sRzKODA-shot21_0/img22.jpg,Images/video-storytelling-videochristmas_5RR_sRzKODA-shot21_0/img30.jpg,Images/video-storytelling-videochristmas_5RR_sRzKODA-shot21_0/img50.jpg,Images/video-storytelling-videochristmas_5RR_sRzKODA-shot21_0/img52.jpg,1880,25,0,2022-06-16_05h34.53.979,annotation,2021.2.3,Win32,60.0024001,,
,,,,,,,,,,,,,,,,,-0.25,0.153333333,1,0,0,image_1,0,53,53,47,1,1958,A close up of a person sitting on a motorbike.,M,0,4,MSR-VTT-videoTestVideo_video7038-shot6_0,Images/MSR-VTT-videoTestVideo_video7038-shot6_0/img0.jpg,Images/MSR-VTT-videoTestVideo_video7038-shot6_0/img2.jpg,Images/MSR-VTT-videoTestVideo_video7038-shot6_0/img15.jpg,Images/MSR-VTT-videoTestVideo_video7038-shot6_0/img41.jpg,Images/MSR-VTT-videoTestVideo_video7038-shot6_0/img52.jpg,Images/MSR-VTT-videoTestVideo_video7038-shot6_0/img55.jpg,Images/MSR-VTT-videoTestVideo_video7038-shot6_0/img58.jpg,Images/MSR-VTT-videoTestVideo_video7038-shot6_0/img62.jpg,Images/MSR-VTT-videoTestVideo_video7038-shot6_0/img63.jpg,Images/MSR-VTT-videoTestVideo_video7038-shot6_0/img80.jpg,944,25,0,2022-06-16_05h34.53.979,annotation,2021.2.3,Win32,60.0024001,,
,,,,,,,,,,,,,,,,,-0.075555556,0.138888889,1,0,0,image_2,0,54,54,3,1,333,There is some faint white text on the lower right part of the screen.  It is faint but visible and you can read it clearly.  The text is fully on the man's grey jacket. ,H,0,2,MSR-VTT-videoTestVideo_video9235-shot0_0,Images/MSR-VTT-videoTestVideo_video9235-shot0_0/img0.jpg,Images/MSR-VTT-videoTestVideo_video9235-shot0_0/img4.jpg,Images/MSR-VTT-videoTestVideo_video9235-shot0_0/img7.jpg,Images/MSR-VTT-videoTestVideo_video9235-shot0_0/img9.jpg,Images/MSR-VTT-videoTestVideo_video9235-shot0_0/img11.jpg,Images/MSR-VTT-videoTestVideo_video9235-shot0_0/img15.jpg,Images/MSR-VTT-videoTestVideo_video9235-shot0_0/img19.jpg,Images/MSR-VTT-videoTestVideo_video9235-shot0_0/img22.jpg,Images/MSR-VTT-videoTestVideo_video9235-shot0_0/img29.jpg,Images/MSR-VTT-videoTestVideo_video9235-shot0_0/img40.jpg,1135,25,0,2022-06-16_05h34.53.979,annotation,2021.2.3,Win32,60.0024001,,
,,,,,,,,,,,,,,,,,0,0.094444444,1,0,0,image_2,0,55,55,35,1,1602,A room with a lot of chairs and a lot of buttons.,M,0,1,MSR-VTT-videoTestVideo_video8555-shot6_0,Images/MSR-VTT-videoTestVideo_video8555-shot6_0/img0.jpg,Images/MSR-VTT-videoTestVideo_video8555-shot6_0/img5.jpg,Images/MSR-VTT-videoTestVideo_video8555-shot6_0/img12.jpg,Images/MSR-VTT-videoTestVideo_video8555-shot6_0/img17.jpg,Images/MSR-VTT-videoTestVideo_video8555-shot6_0/img20.jpg,Images/MSR-VTT-videoTestVideo_video8555-shot6_0/img23.jpg,Images/MSR-VTT-videoTestVideo_video8555-shot6_0/img39.jpg,Images/MSR-VTT-videoTestVideo_video8555-shot6_0/img45.jpg,Images/MSR-VTT-videoTestVideo_video8555-shot6_0/img50.jpg,Images/MSR-VTT-videoTestVideo_video8555-shot6_0/img57.jpg,622,25,0,2022-06-16_05h34.53.979,annotation,2021.2.3,Win32,60.0024001,,
,,,,,,,,,,,,,,,,,0.052222222,-0.197777778,1,0,0,image_7,0,56,56,16,1,996,The bottom of the thumb can be seen with a little more of the hand shown.,H,0,3,video-storytelling-videocamping_dBXYM3dQTSo-shot69_4,Images/video-storytelling-videocamping_dBXYM3dQTSo-shot69_4/img214.jpg,Images/video-storytelling-videocamping_dBXYM3dQTSo-shot69_4/img221.jpg,Images/video-storytelling-videocamping_dBXYM3dQTSo-shot69_4/img223.jpg,Images/video-storytelling-videocamping_dBXYM3dQTSo-shot69_4/img226.jpg,Images/video-storytelling-videocamping_dBXYM3dQTSo-shot69_4/img235.jpg,Images/video-storytelling-videocamping_dBXYM3dQTSo-shot69_4/img237.jpg,Images/video-storytelling-videocamping_dBXYM3dQTSo-shot69_4/img243.jpg,Images/video-storytelling-videocamping_dBXYM3dQTSo-shot69_4/img246.jpg,Images/video-storytelling-videocamping_dBXYM3dQTSo-shot69_4/img249.jpg,Images/video-storytelling-videocamping_dBXYM3dQTSo-shot69_4/img255.jpg,1273,25,0,2022-06-16_05h34.53.979,annotation,2021.2.3,Win32,60.0024001,,
,,,,,,,,,,,,,,,,,-0.473333333,-0.157777778,1,0,0,image_5,0,57,57,57,1,1240,A man and a woman standing next to a bouquet of flowers.,M,0,8,video-storytelling-videowedding_Bp8t824h5NE-shot69_1,Images/video-storytelling-videowedding_Bp8t824h5NE-shot69_1/img227.jpg,Images/video-storytelling-videowedding_Bp8t824h5NE-shot69_1/img250.jpg,Images/video-storytelling-videowedding_Bp8t824h5NE-shot69_1/img275.jpg,Images/video-storytelling-videowedding_Bp8t824h5NE-shot69_1/img323.jpg,Images/video-storytelling-videowedding_Bp8t824h5NE-shot69_1/img428.jpg,Images/video-storytelling-videowedding_Bp8t824h5NE-shot69_1/img477.jpg,Images/video-storytelling-videowedding_Bp8t824h5NE-shot69_1/img492.jpg,Images/video-storytelling-videowedding_Bp8t824h5NE-shot69_1/img540.jpg,Images/video-storytelling-videowedding_Bp8t824h5NE-shot69_1/img565.jpg,Images/video-storytelling-videowedding_Bp8t824h5NE-shot69_1/img602.jpg,224,25,0,2022-06-16_05h34.53.979,annotation,2021.2.3,Win32,60.0024001,,
,,,,,,,,,,,,,,,,,0.276666667,-0.214444444,1,0,0,image_8,0,58,58,12,1,317,"The woman in pink has her hands together and down, only one is visible. She is looking up.",H,0,1,MSR-VTT-videoTestVideo_video9969-shot1_1,Images/MSR-VTT-videoTestVideo_video9969-shot1_1/img147.jpg,Images/MSR-VTT-videoTestVideo_video9969-shot1_1/img162.jpg,Images/MSR-VTT-videoTestVideo_video9969-shot1_1/img173.jpg,Images/MSR-VTT-videoTestVideo_video9969-shot1_1/img188.jpg,Images/MSR-VTT-videoTestVideo_video9969-shot1_1/img199.jpg,Images/MSR-VTT-videoTestVideo_video9969-shot1_1/img255.jpg,Images/MSR-VTT-videoTestVideo_video9969-shot1_1/img277.jpg,Images/MSR-VTT-videoTestVideo_video9969-shot1_1/img297.jpg,Images/MSR-VTT-videoTestVideo_video9969-shot1_1/img319.jpg,Images/MSR-VTT-videoTestVideo_video9969-shot1_1/img355.jpg,2005,25,0,2022-06-16_05h34.53.979,annotation,2021.2.3,Win32,60.0024001,,
,,,,,,,,,,,,,,,,,-0.517777778,0.166666667,1,0,0,image_0,0,59,59,11,1,554,"The word ""an"" is centered perfect on the white portion of the tray that splits the liquids.",H,0,5,MSR-VTT-videoTestVideo_video7267-shot1_1,Images/MSR-VTT-videoTestVideo_video7267-shot1_1/img32.jpg,Images/MSR-VTT-videoTestVideo_video7267-shot1_1/img48.jpg,Images/MSR-VTT-videoTestVideo_video7267-shot1_1/img52.jpg,Images/MSR-VTT-videoTestVideo_video7267-shot1_1/img56.jpg,Images/MSR-VTT-videoTestVideo_video7267-shot1_1/img60.jpg,Images/MSR-VTT-videoTestVideo_video7267-shot1_1/img64.jpg,Images/MSR-VTT-videoTestVideo_video7267-shot1_1/img80.jpg,Images/MSR-VTT-videoTestVideo_video7267-shot1_1/img87.jpg,Images/MSR-VTT-videoTestVideo_video7267-shot1_1/img90.jpg,Images/MSR-VTT-videoTestVideo_video7267-shot1_1/img104.jpg,2007,25,0,2022-06-16_05h34.53.979,annotation,2021.2.3,Win32,60.0024001,,
,,,,,,,,,,,,,,,,,-0.02,0.156666667,1,0,0,image_2,0,60,60,14,1,507,A stern looking man is looking to the right slightly but mostly straight ahead.  There are a lot of lights behind his head over both shoulders.  ,H,0,0,MSR-VTT-videoTestVideo_video9634-shot1_0,Images/MSR-VTT-videoTestVideo_video9634-shot1_0/img2.jpg,Images/MSR-VTT-videoTestVideo_video9634-shot1_0/img14.jpg,Images/MSR-VTT-videoTestVideo_video9634-shot1_0/img33.jpg,Images/MSR-VTT-videoTestVideo_video9634-shot1_0/img39.jpg,Images/MSR-VTT-videoTestVideo_video9634-shot1_0/img51.jpg,Images/MSR-VTT-videoTestVideo_video9634-shot1_0/img92.jpg,Images/MSR-VTT-videoTestVideo_video9634-shot1_0/img121.jpg,Images/MSR-VTT-videoTestVideo_video9634-shot1_0/img158.jpg,Images/MSR-VTT-videoTestVideo_video9634-shot1_0/img204.jpg,Images/MSR-VTT-videoTestVideo_video9634-shot1_0/img254.jpg,1322,25,0,2022-06-16_05h34.53.979,annotation,2021.2.3,Win32,60.0024001,,
,,,,,,,,,,,,,,,,,0.023333333,-0.101111111,1,0,0,image_7,0,61,61,7,1,2035,A man standing next to a woman in a restaurant.,M,0,8,video-storytelling-videowedding_de8dLXvgV-I-shot13_1,Images/video-storytelling-videowedding_de8dLXvgV-I-shot13_1/img30.jpg,Images/video-storytelling-videowedding_de8dLXvgV-I-shot13_1/img34.jpg,Images/video-storytelling-videowedding_de8dLXvgV-I-shot13_1/img40.jpg,Images/video-storytelling-videowedding_de8dLXvgV-I-shot13_1/img43.jpg,Images/video-storytelling-videowedding_de8dLXvgV-I-shot13_1/img48.jpg,Images/video-storytelling-videowedding_de8dLXvgV-I-shot13_1/img58.jpg,Images/video-storytelling-videowedding_de8dLXvgV-I-shot13_1/img62.jpg,Images/video-storytelling-videowedding_de8dLXvgV-I-shot13_1/img64.jpg,Images/video-storytelling-videowedding_de8dLXvgV-I-shot13_1/img65.jpg,Images/video-storytelling-videowedding_de8dLXvgV-I-shot13_1/img68.jpg,127,25,0,2022-06-16_05h34.53.979,annotation,2021.2.3,Win32,60.0024001,,
,,,,,,,,,,,,,,,,,0.434444444,-0.153333333,1,0,0,image_9,0,62,62,41,1,68,The horses far leg is entirely covered up by his front leg.,H,0,6,MSR-VTT-videoTestVideo_video9311-shot1_0,Images/MSR-VTT-videoTestVideo_video9311-shot1_0/img0.jpg,Images/MSR-VTT-videoTestVideo_video9311-shot1_0/img7.jpg,Images/MSR-VTT-videoTestVideo_video9311-shot1_0/img18.jpg,Images/MSR-VTT-videoTestVideo_video9311-shot1_0/img38.jpg,Images/MSR-VTT-videoTestVideo_video9311-shot1_0/img64.jpg,Images/MSR-VTT-videoTestVideo_video9311-shot1_0/img65.jpg,Images/MSR-VTT-videoTestVideo_video9311-shot1_0/img75.jpg,Images/MSR-VTT-videoTestVideo_video9311-shot1_0/img82.jpg,Images/MSR-VTT-videoTestVideo_video9311-shot1_0/img87.jpg,Images/MSR-VTT-videoTestVideo_video9311-shot1_0/img90.jpg,1156,25,0,2022-06-16_05h34.53.979,annotation,2021.2.3,Win32,60.0024001,,
,,,,,,,,,,,,,,,,,,,,,,,,,,,,,,,,,,,,,,,,,,,,,,,2022-06-16_05h34.53.979,annotation,2021.2.3,Win32,60.0024001,space,21.0733
