mturk,key_resp_2.keys,key_resp_2.rt,key_resp_3.keys,key_resp_3.rt,mouse_2.x,mouse_2.y,mouse_2.leftButton,mouse_2.midButton,mouse_2.rightButton,mouse_2.clicked_name,key_resp_5.keys,key_resp_5.rt,key_resp.keys,key_resp.rt,key_resp_6.keys,key_resp_6.rt,mouse.x,mouse.y,mouse.leftButton,mouse.midButton,mouse.rightButton,mouse.clicked_name,trials.thisRepN,trials.thisTrialN,trials.thisN,trials.thisIndex,trials.ran,N,caption,class_caption,model_guessed,target_idx,image_set,img1,img2,img3,img4,img5,img6,img7,img8,img9,img10,Q_id,block,is_check,date,expName,psychopyVersion,OS,frameRate,key_resp_7.keys,key_resp_7.rt
1102059,space,5.6231,space,18.2167,0.276302083,0.118489583,1,0,0,ex4,space,4.0654,space,4.0794,space,1.6408,-0.021875,0.171875,1,0,0,image_2,0,0,0,58,1,0,Pair of black gloves,H,,2,open-images-510_3a241cb30d6e5319,Checks/check1/open-images-225_1442c0d0ef23d58bimg3.jpg,Checks/check1/open-images-2759_3a42708fe77398b7img8.jpg,Checks/check1/open-images-510_3a241cb30d6e5319img2.jpg,Checks/check1/open-images-2209_02c98146fb93ff17img1.jpg,Checks/check1/open-images-1553_0f128317e56a9d2fimg9.jpg,Checks/check1/open-images-2666_044d7c6d11e6b493img8.jpg,Checks/check1/open-images-2880_159294646083f545img4.jpg,Checks/check1/open-images-609_2dc0baa993a2bd25img5.jpg,Checks/check1/open-images-1854_2b15616b4f1080e7img2.jpg,Checks/check1/open-images-1435_1b0ce31951048765img8.jpg,,,1,2022-06-15_09h14.19.801,annotation,2021.2.3,Win32,60.08532116,,
,,,,,,,,,,,,,,,,,0.484635417,0.143229167,1,0,0,image_4,0,1,1,6,1,1605,A woman is standing in front of a television.,M,0,4,MSR-VTT-videoTestVideo_video8454-shot1_1,Images/MSR-VTT-videoTestVideo_video8454-shot1_1/img86.jpg,Images/MSR-VTT-videoTestVideo_video8454-shot1_1/img87.jpg,Images/MSR-VTT-videoTestVideo_video8454-shot1_1/img88.jpg,Images/MSR-VTT-videoTestVideo_video8454-shot1_1/img89.jpg,Images/MSR-VTT-videoTestVideo_video8454-shot1_1/img147.jpg,Images/MSR-VTT-videoTestVideo_video8454-shot1_1/img148.jpg,Images/MSR-VTT-videoTestVideo_video8454-shot1_1/img152.jpg,Images/MSR-VTT-videoTestVideo_video8454-shot1_1/img156.jpg,Images/MSR-VTT-videoTestVideo_video8454-shot1_1/img159.jpg,Images/MSR-VTT-videoTestVideo_video8454-shot1_1/img172.jpg,1787,11,0,2022-06-15_09h14.19.801,annotation,2021.2.3,Win32,60.08532116,,
,,,,,,,,,,,,,,,,,-0.491927083,-0.158854167,1,0,0,image_5,0,2,2,15,1,679,The man with the white shirt has just went behind the person to the left side of the image.  You can see his entire body. ,H,0,5,MSR-VTT-videoTestVideo_video8842-shot1_0,Images/MSR-VTT-videoTestVideo_video8842-shot1_0/img0.jpg,Images/MSR-VTT-videoTestVideo_video8842-shot1_0/img3.jpg,Images/MSR-VTT-videoTestVideo_video8842-shot1_0/img5.jpg,Images/MSR-VTT-videoTestVideo_video8842-shot1_0/img9.jpg,Images/MSR-VTT-videoTestVideo_video8842-shot1_0/img17.jpg,Images/MSR-VTT-videoTestVideo_video8842-shot1_0/img22.jpg,Images/MSR-VTT-videoTestVideo_video8842-shot1_0/img29.jpg,Images/MSR-VTT-videoTestVideo_video8842-shot1_0/img35.jpg,Images/MSR-VTT-videoTestVideo_video8842-shot1_0/img37.jpg,Images/MSR-VTT-videoTestVideo_video8842-shot1_0/img42.jpg,1846,11,0,2022-06-15_09h14.19.801,annotation,2021.2.3,Win32,60.08532116,,
,,,,,,,,,,,,,,,,,-0.20546875,0.169270833,1,0,0,image_1,0,3,3,62,1,4,A penguin holding a piece of paper with text on it. ,H,,1,open-images-2521_074d6af730ed17a6,Checks/check5/open-images-509_4d8bd994cb8c6eaeimg0.jpg,Checks/check5/open-images-2521_074d6af730ed17a6img1.jpg,Checks/check5/open-images-1365_a00a5fde334ae45aimg4.jpg,Checks/check5/open-images-1602_44092afdeab39e73img6.jpg,Checks/check5/open-images-1032_059f3cdfb85ee0ceimg3.jpg,Checks/check5/open-images-727_25b77fff36adba66img2.jpg,Checks/check5/open-images-2208_0fb92b9978d98575img2.jpg,Checks/check5/open-images-1305_05769e6abb16fdc8img9.jpg,Checks/check5/open-images-2676_052dbf7b4899430bimg1.jpg,Checks/check5/open-images-2569_1e81d79bb796a2dbimg7.jpg,,,1,2022-06-15_09h14.19.801,annotation,2021.2.3,Win32,60.08532116,,
,,,,,,,,,,,,,,,,,-0.459375,-0.108072917,1,0,0,image_5,0,4,4,54,1,596,The stick has been removed.  There a a couple of glowing coals near the lower left hand part of the picture. ,H,0,4,video-storytelling-videocamping_EytINruY3-U-shot37_0,Images/video-storytelling-videocamping_EytINruY3-U-shot37_0/img0.jpg,Images/video-storytelling-videocamping_EytINruY3-U-shot37_0/img16.jpg,Images/video-storytelling-videocamping_EytINruY3-U-shot37_0/img21.jpg,Images/video-storytelling-videocamping_EytINruY3-U-shot37_0/img42.jpg,Images/video-storytelling-videocamping_EytINruY3-U-shot37_0/img141.jpg,Images/video-storytelling-videocamping_EytINruY3-U-shot37_0/img159.jpg,Images/video-storytelling-videocamping_EytINruY3-U-shot37_0/img315.jpg,Images/video-storytelling-videocamping_EytINruY3-U-shot37_0/img317.jpg,Images/video-storytelling-videocamping_EytINruY3-U-shot37_0/img318.jpg,Images/video-storytelling-videocamping_EytINruY3-U-shot37_0/img321.jpg,1539,11,0,2022-06-15_09h14.19.801,annotation,2021.2.3,Win32,60.08532116,,
,,,,,,,,,,,,,,,,,-0.251041667,-0.138020833,1,0,0,image_6,0,5,5,42,1,1883,A photo of a person standing next to a fire hydrant.,M,1,3,MSR-VTT-videoTestVideo_video9837-shot1_0,Images/MSR-VTT-videoTestVideo_video9837-shot1_0/img0.jpg,Images/MSR-VTT-videoTestVideo_video9837-shot1_0/img6.jpg,Images/MSR-VTT-videoTestVideo_video9837-shot1_0/img7.jpg,Images/MSR-VTT-videoTestVideo_video9837-shot1_0/img13.jpg,Images/MSR-VTT-videoTestVideo_video9837-shot1_0/img30.jpg,Images/MSR-VTT-videoTestVideo_video9837-shot1_0/img44.jpg,Images/MSR-VTT-videoTestVideo_video9837-shot1_0/img53.jpg,Images/MSR-VTT-videoTestVideo_video9837-shot1_0/img58.jpg,Images/MSR-VTT-videoTestVideo_video9837-shot1_0/img59.jpg,Images/MSR-VTT-videoTestVideo_video9837-shot1_0/img68.jpg,964,11,0,2022-06-15_09h14.19.801,annotation,2021.2.3,Win32,60.08532116,,
,,,,,,,,,,,,,,,,,0.00546875,-0.188802083,1,0,0,image_7,0,6,6,31,1,2013,A frying pan with some kind of food in it.,M,0,4,YouCook-video0008-shot1_2,Images/YouCook-video0008-shot1_2/img764.jpg,Images/YouCook-video0008-shot1_2/img778.jpg,Images/YouCook-video0008-shot1_2/img869.jpg,Images/YouCook-video0008-shot1_2/img890.jpg,Images/YouCook-video0008-shot1_2/img915.jpg,Images/YouCook-video0008-shot1_2/img929.jpg,Images/YouCook-video0008-shot1_2/img989.jpg,Images/YouCook-video0008-shot1_2/img1231.jpg,Images/YouCook-video0008-shot1_2/img1246.jpg,Images/YouCook-video0008-shot1_2/img1268.jpg,1032,11,0,2022-06-15_09h14.19.801,annotation,2021.2.3,Win32,60.08532116,,
,,,,,,,,,,,,,,,,,-0.238020833,-0.119791667,1,0,0,image_6,0,7,7,43,1,314,Items are just beginning to tumble from truck bed and none of boy's chin is visible.,H,0,6,MSR-VTT-videoTestVideo_video8088-shot2_0,Images/MSR-VTT-videoTestVideo_video8088-shot2_0/img0.jpg,Images/MSR-VTT-videoTestVideo_video8088-shot2_0/img13.jpg,Images/MSR-VTT-videoTestVideo_video8088-shot2_0/img29.jpg,Images/MSR-VTT-videoTestVideo_video8088-shot2_0/img35.jpg,Images/MSR-VTT-videoTestVideo_video8088-shot2_0/img38.jpg,Images/MSR-VTT-videoTestVideo_video8088-shot2_0/img40.jpg,Images/MSR-VTT-videoTestVideo_video8088-shot2_0/img45.jpg,Images/MSR-VTT-videoTestVideo_video8088-shot2_0/img48.jpg,Images/MSR-VTT-videoTestVideo_video8088-shot2_0/img50.jpg,Images/MSR-VTT-videoTestVideo_video8088-shot2_0/img52.jpg,576,11,0,2022-06-15_09h14.19.801,annotation,2021.2.3,Win32,60.08532116,,
,,,,,,,,,,,,,,,,,-0.448958333,0.096354167,1,0,0,image_0,0,8,8,41,1,1473,A person holding a red red scissors in their hands.,M,0,2,MSR-VTT-videoTestVideo_video8153-shot1_0,Images/MSR-VTT-videoTestVideo_video8153-shot1_0/img5.jpg,Images/MSR-VTT-videoTestVideo_video8153-shot1_0/img18.jpg,Images/MSR-VTT-videoTestVideo_video8153-shot1_0/img22.jpg,Images/MSR-VTT-videoTestVideo_video8153-shot1_0/img23.jpg,Images/MSR-VTT-videoTestVideo_video8153-shot1_0/img26.jpg,Images/MSR-VTT-videoTestVideo_video8153-shot1_0/img47.jpg,Images/MSR-VTT-videoTestVideo_video8153-shot1_0/img73.jpg,Images/MSR-VTT-videoTestVideo_video8153-shot1_0/img91.jpg,Images/MSR-VTT-videoTestVideo_video8153-shot1_0/img129.jpg,Images/MSR-VTT-videoTestVideo_video8153-shot1_0/img216.jpg,304,11,0,2022-06-15_09h14.19.801,annotation,2021.2.3,Win32,60.08532116,,
,,,,,,,,,,,,,,,,,0.523697917,0.119791667,1,0,0,image_4,0,9,9,7,1,262,The rider in pink's horse is fully visible.,H,0,9,MSR-VTT-videoTestVideo_video7184-shot1_0,Images/MSR-VTT-videoTestVideo_video7184-shot1_0/img0.jpg,Images/MSR-VTT-videoTestVideo_video7184-shot1_0/img11.jpg,Images/MSR-VTT-videoTestVideo_video7184-shot1_0/img21.jpg,Images/MSR-VTT-videoTestVideo_video7184-shot1_0/img133.jpg,Images/MSR-VTT-videoTestVideo_video7184-shot1_0/img167.jpg,Images/MSR-VTT-videoTestVideo_video7184-shot1_0/img179.jpg,Images/MSR-VTT-videoTestVideo_video7184-shot1_0/img185.jpg,Images/MSR-VTT-videoTestVideo_video7184-shot1_0/img206.jpg,Images/MSR-VTT-videoTestVideo_video7184-shot1_0/img221.jpg,Images/MSR-VTT-videoTestVideo_video7184-shot1_0/img235.jpg,34,11,0,2022-06-15_09h14.19.801,annotation,2021.2.3,Win32,60.08532116,,
,,,,,,,,,,,,,,,,,-0.4125,0.143229167,1,0,0,image_0,0,10,10,52,1,1823,A man standing next to a woman holding a bottle of water.,M,0,7,MSR-VTT-videoTestVideo_video7578-shot1_0,Images/MSR-VTT-videoTestVideo_video7578-shot1_0/img0.jpg,Images/MSR-VTT-videoTestVideo_video7578-shot1_0/img16.jpg,Images/MSR-VTT-videoTestVideo_video7578-shot1_0/img32.jpg,Images/MSR-VTT-videoTestVideo_video7578-shot1_0/img113.jpg,Images/MSR-VTT-videoTestVideo_video7578-shot1_0/img195.jpg,Images/MSR-VTT-videoTestVideo_video7578-shot1_0/img238.jpg,Images/MSR-VTT-videoTestVideo_video7578-shot1_0/img274.jpg,Images/MSR-VTT-videoTestVideo_video7578-shot1_0/img331.jpg,Images/MSR-VTT-videoTestVideo_video7578-shot1_0/img345.jpg,Images/MSR-VTT-videoTestVideo_video7578-shot1_0/img357.jpg,895,11,0,2022-06-15_09h14.19.801,annotation,2021.2.3,Win32,60.08532116,,
,,,,,,,,,,,,,,,,,-0.465885417,0.110677083,1,0,0,image_0,0,11,11,27,1,2054,A woman sitting on top of a table in a room.,M,1,4,MSR-VTT-videoTestVideo_video7533-shot1_3,Images/MSR-VTT-videoTestVideo_video7533-shot1_3/img281.jpg,Images/MSR-VTT-videoTestVideo_video7533-shot1_3/img290.jpg,Images/MSR-VTT-videoTestVideo_video7533-shot1_3/img307.jpg,Images/MSR-VTT-videoTestVideo_video7533-shot1_3/img311.jpg,Images/MSR-VTT-videoTestVideo_video7533-shot1_3/img322.jpg,Images/MSR-VTT-videoTestVideo_video7533-shot1_3/img332.jpg,Images/MSR-VTT-videoTestVideo_video7533-shot1_3/img372.jpg,Images/MSR-VTT-videoTestVideo_video7533-shot1_3/img385.jpg,Images/MSR-VTT-videoTestVideo_video7533-shot1_3/img389.jpg,Images/MSR-VTT-videoTestVideo_video7533-shot1_3/img397.jpg,1327,11,0,2022-06-15_09h14.19.801,annotation,2021.2.3,Win32,60.08532116,,
,,,,,,,,,,,,,,,,,-0.00234375,-0.149739583,1,0,0,image_7,0,12,12,26,1,1399,A picture of a teddy bear sitting next to a teddy bear.,M,0,8,video-storytelling-videobirthday__amwPjAcoC8-shot80_4,Images/video-storytelling-videobirthday__amwPjAcoC8-shot80_4/img196.jpg,Images/video-storytelling-videobirthday__amwPjAcoC8-shot80_4/img223.jpg,Images/video-storytelling-videobirthday__amwPjAcoC8-shot80_4/img233.jpg,Images/video-storytelling-videobirthday__amwPjAcoC8-shot80_4/img241.jpg,Images/video-storytelling-videobirthday__amwPjAcoC8-shot80_4/img250.jpg,Images/video-storytelling-videobirthday__amwPjAcoC8-shot80_4/img257.jpg,Images/video-storytelling-videobirthday__amwPjAcoC8-shot80_4/img260.jpg,Images/video-storytelling-videobirthday__amwPjAcoC8-shot80_4/img272.jpg,Images/video-storytelling-videobirthday__amwPjAcoC8-shot80_4/img274.jpg,Images/video-storytelling-videobirthday__amwPjAcoC8-shot80_4/img276.jpg,364,11,0,2022-06-15_09h14.19.801,annotation,2021.2.3,Win32,60.08532116,,
,,,,,,,,,,,,,,,,,0.49375,0.135416667,1,0,0,image_4,0,13,13,47,1,518,The man eyes are mostly closed looking at the jar.  The entire jar is visible.,H,0,4,video-storytelling-videocamping_EytINruY3-U-shot47_0,Images/video-storytelling-videocamping_EytINruY3-U-shot47_0/img0.jpg,Images/video-storytelling-videocamping_EytINruY3-U-shot47_0/img8.jpg,Images/video-storytelling-videocamping_EytINruY3-U-shot47_0/img14.jpg,Images/video-storytelling-videocamping_EytINruY3-U-shot47_0/img29.jpg,Images/video-storytelling-videocamping_EytINruY3-U-shot47_0/img33.jpg,Images/video-storytelling-videocamping_EytINruY3-U-shot47_0/img37.jpg,Images/video-storytelling-videocamping_EytINruY3-U-shot47_0/img39.jpg,Images/video-storytelling-videocamping_EytINruY3-U-shot47_0/img42.jpg,Images/video-storytelling-videocamping_EytINruY3-U-shot47_0/img47.jpg,Images/video-storytelling-videocamping_EytINruY3-U-shot47_0/img51.jpg,1623,11,0,2022-06-15_09h14.19.801,annotation,2021.2.3,Win32,60.08532116,,
,,,,,,,,,,,,,,,,,-0.495833333,-0.130208333,1,0,0,image_5,0,14,14,39,1,1886,A picture of a woman with a placard on her head.,M,1,7,MSR-VTT-videoTestVideo_video9196-shot1_1,Images/MSR-VTT-videoTestVideo_video9196-shot1_1/img24.jpg,Images/MSR-VTT-videoTestVideo_video9196-shot1_1/img29.jpg,Images/MSR-VTT-videoTestVideo_video9196-shot1_1/img32.jpg,Images/MSR-VTT-videoTestVideo_video9196-shot1_1/img35.jpg,Images/MSR-VTT-videoTestVideo_video9196-shot1_1/img48.jpg,Images/MSR-VTT-videoTestVideo_video9196-shot1_1/img66.jpg,Images/MSR-VTT-videoTestVideo_video9196-shot1_1/img81.jpg,Images/MSR-VTT-videoTestVideo_video9196-shot1_1/img89.jpg,Images/MSR-VTT-videoTestVideo_video9196-shot1_1/img98.jpg,Images/MSR-VTT-videoTestVideo_video9196-shot1_1/img107.jpg,1138,11,0,2022-06-15_09h14.19.801,annotation,2021.2.3,Win32,60.08532116,,
,,,,,,,,,,,,,,,,,-0.480208333,0.1484375,1,0,0,image_0,0,15,15,23,1,1129,A person is cooking a hot dog on a grill.,M,0,1,video-storytelling-videocamping_dBXYM3dQTSo-shot69_0,Images/video-storytelling-videocamping_dBXYM3dQTSo-shot69_0/img0.jpg,Images/video-storytelling-videocamping_dBXYM3dQTSo-shot69_0/img15.jpg,Images/video-storytelling-videocamping_dBXYM3dQTSo-shot69_0/img29.jpg,Images/video-storytelling-videocamping_dBXYM3dQTSo-shot69_0/img55.jpg,Images/video-storytelling-videocamping_dBXYM3dQTSo-shot69_0/img58.jpg,Images/video-storytelling-videocamping_dBXYM3dQTSo-shot69_0/img63.jpg,Images/video-storytelling-videocamping_dBXYM3dQTSo-shot69_0/img68.jpg,Images/video-storytelling-videocamping_dBXYM3dQTSo-shot69_0/img71.jpg,Images/video-storytelling-videocamping_dBXYM3dQTSo-shot69_0/img86.jpg,Images/video-storytelling-videocamping_dBXYM3dQTSo-shot69_0/img89.jpg,1410,11,0,2022-06-15_09h14.19.801,annotation,2021.2.3,Win32,60.08532116,,
,,,,,,,,,,,,,,,,,0.472916667,0.153645833,1,0,0,image_4,0,16,16,13,1,1291,A couple of people jumping on a surfboard in a bedroom.,M,0,1,MSR-VTT-videoTestVideo_video9044-shot0_1,Images/MSR-VTT-videoTestVideo_video9044-shot0_1/img57.jpg,Images/MSR-VTT-videoTestVideo_video9044-shot0_1/img62.jpg,Images/MSR-VTT-videoTestVideo_video9044-shot0_1/img72.jpg,Images/MSR-VTT-videoTestVideo_video9044-shot0_1/img74.jpg,Images/MSR-VTT-videoTestVideo_video9044-shot0_1/img78.jpg,Images/MSR-VTT-videoTestVideo_video9044-shot0_1/img83.jpg,Images/MSR-VTT-videoTestVideo_video9044-shot0_1/img85.jpg,Images/MSR-VTT-videoTestVideo_video9044-shot0_1/img88.jpg,Images/MSR-VTT-videoTestVideo_video9044-shot0_1/img93.jpg,Images/MSR-VTT-videoTestVideo_video9044-shot0_1/img97.jpg,819,11,0,2022-06-15_09h14.19.801,annotation,2021.2.3,Win32,60.08532116,,
,,,,,,,,,,,,,,,,,-0.52578125,-0.108072917,1,0,0,image_5,0,17,17,8,1,942,You can barely see the bottom of a woman's nose in the top left quadrant of the image.,H,0,5,MSR-VTT-videoTestVideo_video8947-shot0_0,Images/MSR-VTT-videoTestVideo_video8947-shot0_0/img0.jpg,Images/MSR-VTT-videoTestVideo_video8947-shot0_0/img7.jpg,Images/MSR-VTT-videoTestVideo_video8947-shot0_0/img52.jpg,Images/MSR-VTT-videoTestVideo_video8947-shot0_0/img83.jpg,Images/MSR-VTT-videoTestVideo_video8947-shot0_0/img89.jpg,Images/MSR-VTT-videoTestVideo_video8947-shot0_0/img94.jpg,Images/MSR-VTT-videoTestVideo_video8947-shot0_0/img97.jpg,Images/MSR-VTT-videoTestVideo_video8947-shot0_0/img100.jpg,Images/MSR-VTT-videoTestVideo_video8947-shot0_0/img103.jpg,Images/MSR-VTT-videoTestVideo_video8947-shot0_0/img108.jpg,1873,11,0,2022-06-15_09h14.19.801,annotation,2021.2.3,Win32,60.08532116,,
,,,,,,,,,,,,,,,,,-0.485416667,0.154947917,1,0,0,image_0,0,18,18,35,1,621,you can see a hand on the left side with its four fingers and there are two arms waving and with a bit of green hand white at visible in between.,H,0,3,video-storytelling-videobirthday__amwPjAcoC8-shot66_4,Images/video-storytelling-videobirthday__amwPjAcoC8-shot66_4/img135.jpg,Images/video-storytelling-videobirthday__amwPjAcoC8-shot66_4/img137.jpg,Images/video-storytelling-videobirthday__amwPjAcoC8-shot66_4/img139.jpg,Images/video-storytelling-videobirthday__amwPjAcoC8-shot66_4/img140.jpg,Images/video-storytelling-videobirthday__amwPjAcoC8-shot66_4/img142.jpg,Images/video-storytelling-videobirthday__amwPjAcoC8-shot66_4/img143.jpg,Images/video-storytelling-videobirthday__amwPjAcoC8-shot66_4/img147.jpg,Images/video-storytelling-videobirthday__amwPjAcoC8-shot66_4/img148.jpg,Images/video-storytelling-videobirthday__amwPjAcoC8-shot66_4/img157.jpg,Images/video-storytelling-videobirthday__amwPjAcoC8-shot66_4/img159.jpg,419,11,0,2022-06-15_09h14.19.801,annotation,2021.2.3,Win32,60.08532116,,
,,,,,,,,,,,,,,,,,0.475520833,0.158854167,1,0,0,image_4,0,19,19,22,1,1985,A person holding a bowl of food on top of a stove.,M,0,2,YouCook-video0061-shot10_0,Images/YouCook-video0061-shot10_0/img0.jpg,Images/YouCook-video0061-shot10_0/img26.jpg,Images/YouCook-video0061-shot10_0/img28.jpg,Images/YouCook-video0061-shot10_0/img247.jpg,Images/YouCook-video0061-shot10_0/img274.jpg,Images/YouCook-video0061-shot10_0/img283.jpg,Images/YouCook-video0061-shot10_0/img291.jpg,Images/YouCook-video0061-shot10_0/img324.jpg,Images/YouCook-video0061-shot10_0/img347.jpg,Images/YouCook-video0061-shot10_0/img394.jpg,1423,11,0,2022-06-15_09h14.19.801,annotation,2021.2.3,Win32,60.08532116,,
,,,,,,,,,,,,,,,,,0.285416667,0.149739583,1,0,0,image_3,0,20,20,20,1,647,Several male dancers are dipping their partners as low as they can go.,H,0,3,MSR-VTT-videoTestVideo_video8144-shot2_2,Images/MSR-VTT-videoTestVideo_video8144-shot2_2/img52.jpg,Images/MSR-VTT-videoTestVideo_video8144-shot2_2/img54.jpg,Images/MSR-VTT-videoTestVideo_video8144-shot2_2/img57.jpg,Images/MSR-VTT-videoTestVideo_video8144-shot2_2/img58.jpg,Images/MSR-VTT-videoTestVideo_video8144-shot2_2/img59.jpg,Images/MSR-VTT-videoTestVideo_video8144-shot2_2/img62.jpg,Images/MSR-VTT-videoTestVideo_video8144-shot2_2/img64.jpg,Images/MSR-VTT-videoTestVideo_video8144-shot2_2/img65.jpg,Images/MSR-VTT-videoTestVideo_video8144-shot2_2/img66.jpg,Images/MSR-VTT-videoTestVideo_video8144-shot2_2/img67.jpg,855,11,0,2022-06-15_09h14.19.801,annotation,2021.2.3,Win32,60.08532116,,
,,,,,,,,,,,,,,,,,-0.27578125,-0.186197917,1,0,0,image_6,0,21,21,17,1,519,"The jar is very blurry, a tiny bit of the orange substance in it is visible.",H,0,6,video-storytelling-videocamping_EytINruY3-U-shot47_0,Images/video-storytelling-videocamping_EytINruY3-U-shot47_0/img0.jpg,Images/video-storytelling-videocamping_EytINruY3-U-shot47_0/img8.jpg,Images/video-storytelling-videocamping_EytINruY3-U-shot47_0/img14.jpg,Images/video-storytelling-videocamping_EytINruY3-U-shot47_0/img29.jpg,Images/video-storytelling-videocamping_EytINruY3-U-shot47_0/img33.jpg,Images/video-storytelling-videocamping_EytINruY3-U-shot47_0/img37.jpg,Images/video-storytelling-videocamping_EytINruY3-U-shot47_0/img39.jpg,Images/video-storytelling-videocamping_EytINruY3-U-shot47_0/img42.jpg,Images/video-storytelling-videocamping_EytINruY3-U-shot47_0/img47.jpg,Images/video-storytelling-videocamping_EytINruY3-U-shot47_0/img51.jpg,2037,11,0,2022-06-15_09h14.19.801,annotation,2021.2.3,Win32,60.08532116,,
,,,,,,,,,,,,,,,,,0.449479167,0.1953125,1,0,0,image_4,0,22,22,50,1,1613,A person holding a pair of scissors in their hands.,M,0,1,MSR-VTT-videoTestVideo_video8212-shot1_4,Images/MSR-VTT-videoTestVideo_video8212-shot1_4/img274.jpg,Images/MSR-VTT-videoTestVideo_video8212-shot1_4/img281.jpg,Images/MSR-VTT-videoTestVideo_video8212-shot1_4/img283.jpg,Images/MSR-VTT-videoTestVideo_video8212-shot1_4/img284.jpg,Images/MSR-VTT-videoTestVideo_video8212-shot1_4/img287.jpg,Images/MSR-VTT-videoTestVideo_video8212-shot1_4/img298.jpg,Images/MSR-VTT-videoTestVideo_video8212-shot1_4/img302.jpg,Images/MSR-VTT-videoTestVideo_video8212-shot1_4/img304.jpg,Images/MSR-VTT-videoTestVideo_video8212-shot1_4/img306.jpg,Images/MSR-VTT-videoTestVideo_video8212-shot1_4/img308.jpg,886,11,0,2022-06-15_09h14.19.801,annotation,2021.2.3,Win32,60.08532116,,
,,,,,,,,,,,,,,,,,0.259375,0.16015625,1,0,0,image_3,0,23,23,45,1,783,The overlay has just ended and the shot is of a boy on something in the woods. His face is still all in shadow. ,H,0,5,MSR-VTT-videoTestVideo_video7174-shot1_0,Images/MSR-VTT-videoTestVideo_video7174-shot1_0/img0.jpg,Images/MSR-VTT-videoTestVideo_video7174-shot1_0/img18.jpg,Images/MSR-VTT-videoTestVideo_video7174-shot1_0/img24.jpg,Images/MSR-VTT-videoTestVideo_video7174-shot1_0/img27.jpg,Images/MSR-VTT-videoTestVideo_video7174-shot1_0/img29.jpg,Images/MSR-VTT-videoTestVideo_video7174-shot1_0/img32.jpg,Images/MSR-VTT-videoTestVideo_video7174-shot1_0/img38.jpg,Images/MSR-VTT-videoTestVideo_video7174-shot1_0/img46.jpg,Images/MSR-VTT-videoTestVideo_video7174-shot1_0/img58.jpg,Images/MSR-VTT-videoTestVideo_video7174-shot1_0/img70.jpg,1662,11,0,2022-06-15_09h14.19.801,annotation,2021.2.3,Win32,60.08532116,,
,,,,,,,,,,,,,,,,,-0.5140625,-0.188802083,1,0,0,image_5,0,24,24,32,1,2034,A room with a lot of wooden boards on the floor.,M,0,6,MSR-VTT-videoTestVideo_video7871-shot1_1,Images/MSR-VTT-videoTestVideo_video7871-shot1_1/img49.jpg,Images/MSR-VTT-videoTestVideo_video7871-shot1_1/img50.jpg,Images/MSR-VTT-videoTestVideo_video7871-shot1_1/img56.jpg,Images/MSR-VTT-videoTestVideo_video7871-shot1_1/img68.jpg,Images/MSR-VTT-videoTestVideo_video7871-shot1_1/img108.jpg,Images/MSR-VTT-videoTestVideo_video7871-shot1_1/img115.jpg,Images/MSR-VTT-videoTestVideo_video7871-shot1_1/img116.jpg,Images/MSR-VTT-videoTestVideo_video7871-shot1_1/img133.jpg,Images/MSR-VTT-videoTestVideo_video7871-shot1_1/img136.jpg,Images/MSR-VTT-videoTestVideo_video7871-shot1_1/img140.jpg,1252,11,0,2022-06-15_09h14.19.801,annotation,2021.2.3,Win32,60.08532116,,
,,,,,,,,,,,,,,,,,-0.202864583,0.122395833,1,0,0,image_1,0,25,25,29,1,309,All but the shoulder of the bride's left arm is off frame and the groom is blurry and his hands are adjusting his tie,H,0,2,video-storytelling-videowedding_46xhFCXBMJs-shot88_0,Images/video-storytelling-videowedding_46xhFCXBMJs-shot88_0/img0.jpg,Images/video-storytelling-videowedding_46xhFCXBMJs-shot88_0/img4.jpg,Images/video-storytelling-videowedding_46xhFCXBMJs-shot88_0/img6.jpg,Images/video-storytelling-videowedding_46xhFCXBMJs-shot88_0/img8.jpg,Images/video-storytelling-videowedding_46xhFCXBMJs-shot88_0/img10.jpg,Images/video-storytelling-videowedding_46xhFCXBMJs-shot88_0/img13.jpg,Images/video-storytelling-videowedding_46xhFCXBMJs-shot88_0/img19.jpg,Images/video-storytelling-videowedding_46xhFCXBMJs-shot88_0/img20.jpg,Images/video-storytelling-videowedding_46xhFCXBMJs-shot88_0/img24.jpg,Images/video-storytelling-videowedding_46xhFCXBMJs-shot88_0/img26.jpg,1288,11,0,2022-06-15_09h14.19.801,annotation,2021.2.3,Win32,60.08532116,,
,,,,,,,,,,,,,,,,,-0.03359375,0.151041667,1,0,0,image_2,0,26,26,0,1,1410,A couple of wires sitting next to each other.,M,0,4,MSR-VTT-videoTestVideo_video8609-shot1_2,Images/MSR-VTT-videoTestVideo_video8609-shot1_2/img50.jpg,Images/MSR-VTT-videoTestVideo_video8609-shot1_2/img54.jpg,Images/MSR-VTT-videoTestVideo_video8609-shot1_2/img57.jpg,Images/MSR-VTT-videoTestVideo_video8609-shot1_2/img62.jpg,Images/MSR-VTT-videoTestVideo_video8609-shot1_2/img67.jpg,Images/MSR-VTT-videoTestVideo_video8609-shot1_2/img70.jpg,Images/MSR-VTT-videoTestVideo_video8609-shot1_2/img85.jpg,Images/MSR-VTT-videoTestVideo_video8609-shot1_2/img96.jpg,Images/MSR-VTT-videoTestVideo_video8609-shot1_2/img102.jpg,Images/MSR-VTT-videoTestVideo_video8609-shot1_2/img117.jpg,2041,11,0,2022-06-15_09h14.19.801,annotation,2021.2.3,Win32,60.08532116,,
,,,,,,,,,,,,,,,,,0.44296875,0.174479167,1,0,0,image_4,0,27,27,21,1,1705,A group of people sitting at a table looking at a laptop computer.,M,0,5,MSR-VTT-videoTestVideo_video9758-shot2_1,Images/MSR-VTT-videoTestVideo_video9758-shot2_1/img34.jpg,Images/MSR-VTT-videoTestVideo_video9758-shot2_1/img39.jpg,Images/MSR-VTT-videoTestVideo_video9758-shot2_1/img47.jpg,Images/MSR-VTT-videoTestVideo_video9758-shot2_1/img50.jpg,Images/MSR-VTT-videoTestVideo_video9758-shot2_1/img54.jpg,Images/MSR-VTT-videoTestVideo_video9758-shot2_1/img57.jpg,Images/MSR-VTT-videoTestVideo_video9758-shot2_1/img59.jpg,Images/MSR-VTT-videoTestVideo_video9758-shot2_1/img66.jpg,Images/MSR-VTT-videoTestVideo_video9758-shot2_1/img69.jpg,Images/MSR-VTT-videoTestVideo_video9758-shot2_1/img72.jpg,322,11,0,2022-06-15_09h14.19.801,annotation,2021.2.3,Win32,60.08532116,,
,,,,,,,,,,,,,,,,,0.019791667,0.111979167,1,0,0,image_2,0,28,28,10,1,582,"The image is tinted very red, but there is not much blood on the screen yet, and it says 130 on the screen.",H,0,2,MSR-VTT-videoTestVideo_video9837-shot1_0,Images/MSR-VTT-videoTestVideo_video9837-shot1_0/img0.jpg,Images/MSR-VTT-videoTestVideo_video9837-shot1_0/img6.jpg,Images/MSR-VTT-videoTestVideo_video9837-shot1_0/img7.jpg,Images/MSR-VTT-videoTestVideo_video9837-shot1_0/img13.jpg,Images/MSR-VTT-videoTestVideo_video9837-shot1_0/img30.jpg,Images/MSR-VTT-videoTestVideo_video9837-shot1_0/img44.jpg,Images/MSR-VTT-videoTestVideo_video9837-shot1_0/img53.jpg,Images/MSR-VTT-videoTestVideo_video9837-shot1_0/img58.jpg,Images/MSR-VTT-videoTestVideo_video9837-shot1_0/img59.jpg,Images/MSR-VTT-videoTestVideo_video9837-shot1_0/img68.jpg,42,11,0,2022-06-15_09h14.19.801,annotation,2021.2.3,Win32,60.08532116,,
,,,,,,,,,,,,,,,,,0.502864583,-0.134114583,1,0,0,image_9,0,29,29,60,1,2,Green type writer with a red tape. ,H,,9,open-images-531_0dd4eb59d465a8be,Checks/check3/open-images-503_1ccd6fa641154ebbimg7.jpg,Checks/check3/open-images-1852_00faf52058ad28b8img4.jpg,Checks/check3/open-images-386_1b2e28d6d994603eimg1.jpg,Checks/check3/open-images-471_1121e9f97c200ac0img8.jpg,Checks/check3/open-images-1886_3db71eaddb618934img8.jpg,Checks/check3/open-images-1696_20a4ebf0c0f76b05img6.jpg,Checks/check3/open-images-2447_128483a48e1552f4img6.jpg,Checks/check3/open-images-2994_9965cbf8aa20bda0img2.jpg,Checks/check3/open-images-1068_03d63613107970b3img6.jpg,Checks/check3/open-images-531_0dd4eb59d465a8beimg9.jpg,,,1,2022-06-15_09h14.19.801,annotation,2021.2.3,Win32,60.08532116,,
,,,,,,,,,,,,,,,,,0.19296875,-0.134114583,1,0,0,image_8,0,30,30,9,1,1428,A white sheet of straw flying through the air.,M,0,1,video-storytelling-videowedding_46xhFCXBMJs-shot39_0,Images/video-storytelling-videowedding_46xhFCXBMJs-shot39_0/img0.jpg,Images/video-storytelling-videowedding_46xhFCXBMJs-shot39_0/img23.jpg,Images/video-storytelling-videowedding_46xhFCXBMJs-shot39_0/img59.jpg,Images/video-storytelling-videowedding_46xhFCXBMJs-shot39_0/img83.jpg,Images/video-storytelling-videowedding_46xhFCXBMJs-shot39_0/img96.jpg,Images/video-storytelling-videowedding_46xhFCXBMJs-shot39_0/img101.jpg,Images/video-storytelling-videowedding_46xhFCXBMJs-shot39_0/img120.jpg,Images/video-storytelling-videowedding_46xhFCXBMJs-shot39_0/img125.jpg,Images/video-storytelling-videowedding_46xhFCXBMJs-shot39_0/img129.jpg,Images/video-storytelling-videowedding_46xhFCXBMJs-shot39_0/img135.jpg,2012,11,0,2022-06-15_09h14.19.801,annotation,2021.2.3,Win32,60.08532116,,
,,,,,,,,,,,,,,,,,-0.011458333,-0.147135417,1,0,0,image_7,0,31,31,37,1,349,The girl is facing right with her right arm fully extended and angled slightly backward and her left arm out straight in front of her at shoulder level. ,H,0,6,MSR-VTT-videoTestVideo_video8143-shot1_1,Images/MSR-VTT-videoTestVideo_video8143-shot1_1/img39.jpg,Images/MSR-VTT-videoTestVideo_video8143-shot1_1/img48.jpg,Images/MSR-VTT-videoTestVideo_video8143-shot1_1/img51.jpg,Images/MSR-VTT-videoTestVideo_video8143-shot1_1/img59.jpg,Images/MSR-VTT-videoTestVideo_video8143-shot1_1/img63.jpg,Images/MSR-VTT-videoTestVideo_video8143-shot1_1/img65.jpg,Images/MSR-VTT-videoTestVideo_video8143-shot1_1/img70.jpg,Images/MSR-VTT-videoTestVideo_video8143-shot1_1/img77.jpg,Images/MSR-VTT-videoTestVideo_video8143-shot1_1/img87.jpg,Images/MSR-VTT-videoTestVideo_video8143-shot1_1/img94.jpg,1144,11,0,2022-06-15_09h14.19.801,annotation,2021.2.3,Win32,60.08532116,,
,,,,,,,,,,,,,,,,,0.4859375,0.162760417,1,0,0,image_4,0,32,32,51,1,723,You can't see any part of the person on the right's face.  You can barely see the left arm of the the same person and can't see the right arm at all. ,H,0,6,MSR-VTT-videoTestVideo_video9016-shot1_0,Images/MSR-VTT-videoTestVideo_video9016-shot1_0/img0.jpg,Images/MSR-VTT-videoTestVideo_video9016-shot1_0/img2.jpg,Images/MSR-VTT-videoTestVideo_video9016-shot1_0/img5.jpg,Images/MSR-VTT-videoTestVideo_video9016-shot1_0/img8.jpg,Images/MSR-VTT-videoTestVideo_video9016-shot1_0/img11.jpg,Images/MSR-VTT-videoTestVideo_video9016-shot1_0/img16.jpg,Images/MSR-VTT-videoTestVideo_video9016-shot1_0/img22.jpg,Images/MSR-VTT-videoTestVideo_video9016-shot1_0/img26.jpg,Images/MSR-VTT-videoTestVideo_video9016-shot1_0/img28.jpg,Images/MSR-VTT-videoTestVideo_video9016-shot1_0/img32.jpg,242,11,0,2022-06-15_09h14.19.801,annotation,2021.2.3,Win32,60.08532116,,
,,,,,,,,,,,,,,,,,0.471614583,-0.139322917,1,0,0,image_9,0,33,33,18,1,1298,a close up of a food processor with food in it.,M,0,6,YouCook-video0023-shot1_3,Images/YouCook-video0023-shot1_3/img564.jpg,Images/YouCook-video0023-shot1_3/img654.jpg,Images/YouCook-video0023-shot1_3/img726.jpg,Images/YouCook-video0023-shot1_3/img752.jpg,Images/YouCook-video0023-shot1_3/img753.jpg,Images/YouCook-video0023-shot1_3/img755.jpg,Images/YouCook-video0023-shot1_3/img759.jpg,Images/YouCook-video0023-shot1_3/img764.jpg,Images/YouCook-video0023-shot1_3/img768.jpg,Images/YouCook-video0023-shot1_3/img772.jpg,96,11,0,2022-06-15_09h14.19.801,annotation,2021.2.3,Win32,60.08532116,,
,,,,,,,,,,,,,,,,,0.071875,-0.221354167,1,0,0,image_7,0,34,34,56,1,901,The woman is looking to the right and her mouth is completely open.  Some top teeth are seen. ,H,0,6,video-storytelling-videocamping_1OzbiB1TIWI-shot9_1,Images/video-storytelling-videocamping_1OzbiB1TIWI-shot9_1/img95.jpg,Images/video-storytelling-videocamping_1OzbiB1TIWI-shot9_1/img106.jpg,Images/video-storytelling-videocamping_1OzbiB1TIWI-shot9_1/img119.jpg,Images/video-storytelling-videocamping_1OzbiB1TIWI-shot9_1/img127.jpg,Images/video-storytelling-videocamping_1OzbiB1TIWI-shot9_1/img137.jpg,Images/video-storytelling-videocamping_1OzbiB1TIWI-shot9_1/img155.jpg,Images/video-storytelling-videocamping_1OzbiB1TIWI-shot9_1/img164.jpg,Images/video-storytelling-videocamping_1OzbiB1TIWI-shot9_1/img167.jpg,Images/video-storytelling-videocamping_1OzbiB1TIWI-shot9_1/img171.jpg,Images/video-storytelling-videocamping_1OzbiB1TIWI-shot9_1/img176.jpg,2088,11,0,2022-06-15_09h14.19.801,annotation,2021.2.3,Win32,60.08532116,,
,,,,,,,,,,,,,,,,,-0.0453125,-0.17578125,1,0,0,image_7,0,35,35,38,1,1750,A couple of people swimming in the water.,M,0,5,MSR-VTT-videoTestVideo_video9830-shot1_0,Images/MSR-VTT-videoTestVideo_video9830-shot1_0/img0.jpg,Images/MSR-VTT-videoTestVideo_video9830-shot1_0/img7.jpg,Images/MSR-VTT-videoTestVideo_video9830-shot1_0/img11.jpg,Images/MSR-VTT-videoTestVideo_video9830-shot1_0/img20.jpg,Images/MSR-VTT-videoTestVideo_video9830-shot1_0/img24.jpg,Images/MSR-VTT-videoTestVideo_video9830-shot1_0/img30.jpg,Images/MSR-VTT-videoTestVideo_video9830-shot1_0/img35.jpg,Images/MSR-VTT-videoTestVideo_video9830-shot1_0/img40.jpg,Images/MSR-VTT-videoTestVideo_video9830-shot1_0/img43.jpg,Images/MSR-VTT-videoTestVideo_video9830-shot1_0/img44.jpg,1090,11,0,2022-06-15_09h14.19.801,annotation,2021.2.3,Win32,60.08532116,,
,,,,,,,,,,,,,,,,,0.207291667,0.134114583,1,0,0,image_3,0,36,36,5,1,1317,A woman in a white dress and a man in a white dress.,M,0,0,video-storytelling-videowedding_Bp8t824h5NE-shot62_1,Images/video-storytelling-videowedding_Bp8t824h5NE-shot62_1/img141.jpg,Images/video-storytelling-videowedding_Bp8t824h5NE-shot62_1/img145.jpg,Images/video-storytelling-videowedding_Bp8t824h5NE-shot62_1/img156.jpg,Images/video-storytelling-videowedding_Bp8t824h5NE-shot62_1/img174.jpg,Images/video-storytelling-videowedding_Bp8t824h5NE-shot62_1/img187.jpg,Images/video-storytelling-videowedding_Bp8t824h5NE-shot62_1/img189.jpg,Images/video-storytelling-videowedding_Bp8t824h5NE-shot62_1/img190.jpg,Images/video-storytelling-videowedding_Bp8t824h5NE-shot62_1/img192.jpg,Images/video-storytelling-videowedding_Bp8t824h5NE-shot62_1/img196.jpg,Images/video-storytelling-videowedding_Bp8t824h5NE-shot62_1/img198.jpg,1877,11,0,2022-06-15_09h14.19.801,annotation,2021.2.3,Win32,60.08532116,,
,,,,,,,,,,,,,,,,,-0.438541667,0.115885417,1,0,0,image_0,0,37,37,16,1,822,"The person is just starting to look down, you can still see all of her face. ",H,0,1,MSR-VTT-videoTestVideo_video8954-shot1_6,Images/MSR-VTT-videoTestVideo_video8954-shot1_6/img464.jpg,Images/MSR-VTT-videoTestVideo_video8954-shot1_6/img467.jpg,Images/MSR-VTT-videoTestVideo_video8954-shot1_6/img469.jpg,Images/MSR-VTT-videoTestVideo_video8954-shot1_6/img471.jpg,Images/MSR-VTT-videoTestVideo_video8954-shot1_6/img475.jpg,Images/MSR-VTT-videoTestVideo_video8954-shot1_6/img480.jpg,Images/MSR-VTT-videoTestVideo_video8954-shot1_6/img490.jpg,Images/MSR-VTT-videoTestVideo_video8954-shot1_6/img495.jpg,Images/MSR-VTT-videoTestVideo_video8954-shot1_6/img497.jpg,Images/MSR-VTT-videoTestVideo_video8954-shot1_6/img501.jpg,1841,11,0,2022-06-15_09h14.19.801,annotation,2021.2.3,Win32,60.08532116,,
,,,,,,,,,,,,,,,,,-0.461979167,-0.1015625,1,0,0,image_5,0,38,38,53,1,937,The green cap on the object the person is pouring out of has disappeared completely off the top of the image.  The spoon is full of liquid and upright. ,H,0,3,MSR-VTT-videoTestVideo_video9693-shot2_0,Images/MSR-VTT-videoTestVideo_video9693-shot2_0/img0.jpg,Images/MSR-VTT-videoTestVideo_video9693-shot2_0/img16.jpg,Images/MSR-VTT-videoTestVideo_video9693-shot2_0/img22.jpg,Images/MSR-VTT-videoTestVideo_video9693-shot2_0/img24.jpg,Images/MSR-VTT-videoTestVideo_video9693-shot2_0/img26.jpg,Images/MSR-VTT-videoTestVideo_video9693-shot2_0/img30.jpg,Images/MSR-VTT-videoTestVideo_video9693-shot2_0/img35.jpg,Images/MSR-VTT-videoTestVideo_video9693-shot2_0/img48.jpg,Images/MSR-VTT-videoTestVideo_video9693-shot2_0/img62.jpg,Images/MSR-VTT-videoTestVideo_video9693-shot2_0/img67.jpg,1542,11,0,2022-06-15_09h14.19.801,annotation,2021.2.3,Win32,60.08532116,,
,,,,,,,,,,,,,,,,,0.484635417,0.08984375,1,0,0,image_4,0,39,39,24,1,1043,The girl in pink's eyes and mouth are closed.,H,0,4,MSR-VTT-videoTestVideo_video9583-shot1_0,Images/MSR-VTT-videoTestVideo_video9583-shot1_0/img0.jpg,Images/MSR-VTT-videoTestVideo_video9583-shot1_0/img11.jpg,Images/MSR-VTT-videoTestVideo_video9583-shot1_0/img20.jpg,Images/MSR-VTT-videoTestVideo_video9583-shot1_0/img36.jpg,Images/MSR-VTT-videoTestVideo_video9583-shot1_0/img54.jpg,Images/MSR-VTT-videoTestVideo_video9583-shot1_0/img101.jpg,Images/MSR-VTT-videoTestVideo_video9583-shot1_0/img166.jpg,Images/MSR-VTT-videoTestVideo_video9583-shot1_0/img191.jpg,Images/MSR-VTT-videoTestVideo_video9583-shot1_0/img226.jpg,Images/MSR-VTT-videoTestVideo_video9583-shot1_0/img240.jpg,599,11,0,2022-06-15_09h14.19.801,annotation,2021.2.3,Win32,60.08532116,,
,,,,,,,,,,,,,,,,,-0.044010417,0.151041667,1,0,0,image_2,0,40,40,28,1,1735,A couple of people walking down the street.,M,0,1,MSR-VTT-videoTestVideo_video7692-shot2_1,Images/MSR-VTT-videoTestVideo_video7692-shot2_1/img188.jpg,Images/MSR-VTT-videoTestVideo_video7692-shot2_1/img199.jpg,Images/MSR-VTT-videoTestVideo_video7692-shot2_1/img212.jpg,Images/MSR-VTT-videoTestVideo_video7692-shot2_1/img220.jpg,Images/MSR-VTT-videoTestVideo_video7692-shot2_1/img228.jpg,Images/MSR-VTT-videoTestVideo_video7692-shot2_1/img234.jpg,Images/MSR-VTT-videoTestVideo_video7692-shot2_1/img239.jpg,Images/MSR-VTT-videoTestVideo_video7692-shot2_1/img250.jpg,Images/MSR-VTT-videoTestVideo_video7692-shot2_1/img260.jpg,Images/MSR-VTT-videoTestVideo_video7692-shot2_1/img310.jpg,385,11,0,2022-06-15_09h14.19.801,annotation,2021.2.3,Win32,60.08532116,,
,,,,,,,,,,,,,,,,,0.031510417,-0.143229167,1,0,0,image_7,0,41,41,36,1,1282,A man holding a small cell phone in his hand.,M,0,3,MSR-VTT-videoTestVideo_video9528-shot1_0,Images/MSR-VTT-videoTestVideo_video9528-shot1_0/img0.jpg,Images/MSR-VTT-videoTestVideo_video9528-shot1_0/img6.jpg,Images/MSR-VTT-videoTestVideo_video9528-shot1_0/img16.jpg,Images/MSR-VTT-videoTestVideo_video9528-shot1_0/img25.jpg,Images/MSR-VTT-videoTestVideo_video9528-shot1_0/img52.jpg,Images/MSR-VTT-videoTestVideo_video9528-shot1_0/img55.jpg,Images/MSR-VTT-videoTestVideo_video9528-shot1_0/img82.jpg,Images/MSR-VTT-videoTestVideo_video9528-shot1_0/img140.jpg,Images/MSR-VTT-videoTestVideo_video9528-shot1_0/img167.jpg,Images/MSR-VTT-videoTestVideo_video9528-shot1_0/img180.jpg,495,11,0,2022-06-15_09h14.19.801,annotation,2021.2.3,Win32,60.08532116,,
,,,,,,,,,,,,,,,,,-0.316145833,-0.12890625,1,0,0,image_6,0,42,42,34,1,1256,A man sitting on a bus looking out a window.,M,0,4,MSR-VTT-videoTestVideo_video9446-shot1_0,Images/MSR-VTT-videoTestVideo_video9446-shot1_0/img0.jpg,Images/MSR-VTT-videoTestVideo_video9446-shot1_0/img4.jpg,Images/MSR-VTT-videoTestVideo_video9446-shot1_0/img12.jpg,Images/MSR-VTT-videoTestVideo_video9446-shot1_0/img17.jpg,Images/MSR-VTT-videoTestVideo_video9446-shot1_0/img19.jpg,Images/MSR-VTT-videoTestVideo_video9446-shot1_0/img26.jpg,Images/MSR-VTT-videoTestVideo_video9446-shot1_0/img36.jpg,Images/MSR-VTT-videoTestVideo_video9446-shot1_0/img54.jpg,Images/MSR-VTT-videoTestVideo_video9446-shot1_0/img100.jpg,Images/MSR-VTT-videoTestVideo_video9446-shot1_0/img101.jpg,416,11,0,2022-06-15_09h14.19.801,annotation,2021.2.3,Win32,60.08532116,,
,,,,,,,,,,,,,,,,,0.4546875,-0.114583333,1,0,0,image_9,0,43,43,2,1,1587,A table with a bunch of doughnuts in front of a box.,M,0,7,video-storytelling-videobirthday_fwpYnUDbusw-shot18_9,Images/video-storytelling-videobirthday_fwpYnUDbusw-shot18_9/img432.jpg,Images/video-storytelling-videobirthday_fwpYnUDbusw-shot18_9/img434.jpg,Images/video-storytelling-videobirthday_fwpYnUDbusw-shot18_9/img435.jpg,Images/video-storytelling-videobirthday_fwpYnUDbusw-shot18_9/img438.jpg,Images/video-storytelling-videobirthday_fwpYnUDbusw-shot18_9/img442.jpg,Images/video-storytelling-videobirthday_fwpYnUDbusw-shot18_9/img449.jpg,Images/video-storytelling-videobirthday_fwpYnUDbusw-shot18_9/img456.jpg,Images/video-storytelling-videobirthday_fwpYnUDbusw-shot18_9/img461.jpg,Images/video-storytelling-videobirthday_fwpYnUDbusw-shot18_9/img463.jpg,Images/video-storytelling-videobirthday_fwpYnUDbusw-shot18_9/img469.jpg,14,11,0,2022-06-15_09h14.19.801,annotation,2021.2.3,Win32,60.08532116,,
,,,,,,,,,,,,,,,,,0.506770833,-0.15234375,1,0,0,image_9,0,44,44,44,1,2060,A pan filled with food on top of a stove.,M,0,1,YouCook-video0061-shot10_0,Images/YouCook-video0061-shot10_0/img0.jpg,Images/YouCook-video0061-shot10_0/img26.jpg,Images/YouCook-video0061-shot10_0/img28.jpg,Images/YouCook-video0061-shot10_0/img247.jpg,Images/YouCook-video0061-shot10_0/img274.jpg,Images/YouCook-video0061-shot10_0/img283.jpg,Images/YouCook-video0061-shot10_0/img291.jpg,Images/YouCook-video0061-shot10_0/img324.jpg,Images/YouCook-video0061-shot10_0/img347.jpg,Images/YouCook-video0061-shot10_0/img394.jpg,1687,11,0,2022-06-15_09h14.19.801,annotation,2021.2.3,Win32,60.08532116,,
,,,,,,,,,,,,,,,,,0.496354167,0.13671875,1,0,0,image_4,0,45,45,46,1,969,The small bowl with the egg has been poured and only have the bowl is visible. ,H,0,4,YouCook-video0008-shot1_2,Images/YouCook-video0008-shot1_2/img764.jpg,Images/YouCook-video0008-shot1_2/img778.jpg,Images/YouCook-video0008-shot1_2/img869.jpg,Images/YouCook-video0008-shot1_2/img890.jpg,Images/YouCook-video0008-shot1_2/img915.jpg,Images/YouCook-video0008-shot1_2/img929.jpg,Images/YouCook-video0008-shot1_2/img989.jpg,Images/YouCook-video0008-shot1_2/img1231.jpg,Images/YouCook-video0008-shot1_2/img1246.jpg,Images/YouCook-video0008-shot1_2/img1268.jpg,1628,11,0,2022-06-15_09h14.19.801,annotation,2021.2.3,Win32,60.08532116,,
,,,,,,,,,,,,,,,,,0.009375,-0.14453125,1,0,0,image_7,0,46,46,25,1,1212,A woman walking on a beach with a pink frisbee.,M,0,1,MSR-VTT-videoTestVideo_video7405-shot6_0,Images/MSR-VTT-videoTestVideo_video7405-shot6_0/img0.jpg,Images/MSR-VTT-videoTestVideo_video7405-shot6_0/img6.jpg,Images/MSR-VTT-videoTestVideo_video7405-shot6_0/img33.jpg,Images/MSR-VTT-videoTestVideo_video7405-shot6_0/img41.jpg,Images/MSR-VTT-videoTestVideo_video7405-shot6_0/img48.jpg,Images/MSR-VTT-videoTestVideo_video7405-shot6_0/img57.jpg,Images/MSR-VTT-videoTestVideo_video7405-shot6_0/img67.jpg,Images/MSR-VTT-videoTestVideo_video7405-shot6_0/img104.jpg,Images/MSR-VTT-videoTestVideo_video7405-shot6_0/img123.jpg,Images/MSR-VTT-videoTestVideo_video7405-shot6_0/img132.jpg,1405,11,0,2022-06-15_09h14.19.801,annotation,2021.2.3,Win32,60.08532116,,
,,,,,,,,,,,,,,,,,-0.288802083,0.135416667,1,0,0,image_1,0,47,47,49,1,1549,A woman is sitting on a chair in a room.,M,0,6,MSR-VTT-videoTestVideo_video8166-shot1_1,Images/MSR-VTT-videoTestVideo_video8166-shot1_1/img10.jpg,Images/MSR-VTT-videoTestVideo_video8166-shot1_1/img11.jpg,Images/MSR-VTT-videoTestVideo_video8166-shot1_1/img14.jpg,Images/MSR-VTT-videoTestVideo_video8166-shot1_1/img15.jpg,Images/MSR-VTT-videoTestVideo_video8166-shot1_1/img16.jpg,Images/MSR-VTT-videoTestVideo_video8166-shot1_1/img17.jpg,Images/MSR-VTT-videoTestVideo_video8166-shot1_1/img20.jpg,Images/MSR-VTT-videoTestVideo_video8166-shot1_1/img22.jpg,Images/MSR-VTT-videoTestVideo_video8166-shot1_1/img23.jpg,Images/MSR-VTT-videoTestVideo_video8166-shot1_1/img24.jpg,885,11,0,2022-06-15_09h14.19.801,annotation,2021.2.3,Win32,60.08532116,,
,,,,,,,,,,,,,,,,,0.24375,0.140625,1,0,0,image_3,0,48,48,4,1,455,Opening is center left of image.,H,0,3,MSR-VTT-videoTestVideo_video8095-shot1_1,Images/MSR-VTT-videoTestVideo_video8095-shot1_1/img307.jpg,Images/MSR-VTT-videoTestVideo_video8095-shot1_1/img332.jpg,Images/MSR-VTT-videoTestVideo_video8095-shot1_1/img390.jpg,Images/MSR-VTT-videoTestVideo_video8095-shot1_1/img395.jpg,Images/MSR-VTT-videoTestVideo_video8095-shot1_1/img423.jpg,Images/MSR-VTT-videoTestVideo_video8095-shot1_1/img425.jpg,Images/MSR-VTT-videoTestVideo_video8095-shot1_1/img426.jpg,Images/MSR-VTT-videoTestVideo_video8095-shot1_1/img432.jpg,Images/MSR-VTT-videoTestVideo_video8095-shot1_1/img449.jpg,Images/MSR-VTT-videoTestVideo_video8095-shot1_1/img463.jpg,1769,11,0,2022-06-15_09h14.19.801,annotation,2021.2.3,Win32,60.08532116,,
,,,,,,,,,,,,,,,,,-0.434635417,-0.177083333,1,0,0,image_5,0,49,49,30,1,1753,A woman sitting on top of a blue wall.,M,0,6,video-storytelling-videocamping_dBXYM3dQTSo-shot10_1,Images/video-storytelling-videocamping_dBXYM3dQTSo-shot10_1/img267.jpg,Images/video-storytelling-videocamping_dBXYM3dQTSo-shot10_1/img278.jpg,Images/video-storytelling-videocamping_dBXYM3dQTSo-shot10_1/img281.jpg,Images/video-storytelling-videocamping_dBXYM3dQTSo-shot10_1/img287.jpg,Images/video-storytelling-videocamping_dBXYM3dQTSo-shot10_1/img294.jpg,Images/video-storytelling-videocamping_dBXYM3dQTSo-shot10_1/img323.jpg,Images/video-storytelling-videocamping_dBXYM3dQTSo-shot10_1/img335.jpg,Images/video-storytelling-videocamping_dBXYM3dQTSo-shot10_1/img350.jpg,Images/video-storytelling-videocamping_dBXYM3dQTSo-shot10_1/img354.jpg,Images/video-storytelling-videocamping_dBXYM3dQTSo-shot10_1/img362.jpg,1264,11,0,2022-06-15_09h14.19.801,annotation,2021.2.3,Win32,60.08532116,,
,,,,,,,,,,,,,,,,,-0.497135417,-0.153645833,1,0,0,image_5,0,50,50,59,1,1,The only picture of a hawk.  It is looking to the left.  You see lots of branches and darker blue sky. ,H,,5,open-images-958_686caac9c5b322e7,Checks/check2/open-images-2603_1b5152f01f0093e7img3.jpg,Checks/check2/open-images-1836_069810916ce5d675img8.jpg,Checks/check2/open-images-974_0748fdedc4bf8b7bimg2.jpg,Checks/check2/open-images-617_01fb725fb1aa7b04img6.jpg,Checks/check2/open-images-507_047769e1f977cd97img2.jpg,Checks/check2/open-images-958_686caac9c5b322e7img5.jpg,Checks/check2/open-images-1278_21851d9bf5dc05c9img7.jpg,Checks/check2/open-images-2424_05f04546e01499f2img0.jpg,Checks/check2/open-images-1529_1442b11a10a6aeadimg3.jpg,Checks/check2/open-images-514_2c523ddedc2561d4img1.jpg,,,1,2022-06-15_09h14.19.801,annotation,2021.2.3,Win32,60.08532116,,
,,,,,,,,,,,,,,,,,-0.184635417,-0.15234375,1,0,0,image_6,0,51,51,3,1,709,A woman is pictured and her head is on the left side of an opening in the tent behind her.  Her teeth are together in kind of a grimace. ,H,0,6,video-storytelling-videocamping_dBXYM3dQTSo-shot10_1,Images/video-storytelling-videocamping_dBXYM3dQTSo-shot10_1/img267.jpg,Images/video-storytelling-videocamping_dBXYM3dQTSo-shot10_1/img278.jpg,Images/video-storytelling-videocamping_dBXYM3dQTSo-shot10_1/img281.jpg,Images/video-storytelling-videocamping_dBXYM3dQTSo-shot10_1/img287.jpg,Images/video-storytelling-videocamping_dBXYM3dQTSo-shot10_1/img294.jpg,Images/video-storytelling-videocamping_dBXYM3dQTSo-shot10_1/img323.jpg,Images/video-storytelling-videocamping_dBXYM3dQTSo-shot10_1/img335.jpg,Images/video-storytelling-videocamping_dBXYM3dQTSo-shot10_1/img350.jpg,Images/video-storytelling-videocamping_dBXYM3dQTSo-shot10_1/img354.jpg,Images/video-storytelling-videocamping_dBXYM3dQTSo-shot10_1/img362.jpg,91,11,0,2022-06-15_09h14.19.801,annotation,2021.2.3,Win32,60.08532116,,
,,,,,,,,,,,,,,,,,-0.282291667,0.1796875,1,0,0,image_1,0,52,52,57,1,168,The woman has both hands over her chest.  Her mouth is wide open and you can see her top teeth. ,H,0,1,MSR-VTT-videoTestVideo_video7405-shot6_0,Images/MSR-VTT-videoTestVideo_video7405-shot6_0/img0.jpg,Images/MSR-VTT-videoTestVideo_video7405-shot6_0/img6.jpg,Images/MSR-VTT-videoTestVideo_video7405-shot6_0/img33.jpg,Images/MSR-VTT-videoTestVideo_video7405-shot6_0/img41.jpg,Images/MSR-VTT-videoTestVideo_video7405-shot6_0/img48.jpg,Images/MSR-VTT-videoTestVideo_video7405-shot6_0/img57.jpg,Images/MSR-VTT-videoTestVideo_video7405-shot6_0/img67.jpg,Images/MSR-VTT-videoTestVideo_video7405-shot6_0/img104.jpg,Images/MSR-VTT-videoTestVideo_video7405-shot6_0/img123.jpg,Images/MSR-VTT-videoTestVideo_video7405-shot6_0/img132.jpg,558,11,0,2022-06-15_09h14.19.801,annotation,2021.2.3,Win32,60.08532116,,
,,,,,,,,,,,,,,,,,-0.445052083,-0.1015625,1,0,0,image_5,0,53,53,40,1,1900,A loaf of bread on top of a skillet.,M,1,6,YouCook-video0027-shot5_0,Images/YouCook-video0027-shot5_0/img2.jpg,Images/YouCook-video0027-shot5_0/img8.jpg,Images/YouCook-video0027-shot5_0/img19.jpg,Images/YouCook-video0027-shot5_0/img23.jpg,Images/YouCook-video0027-shot5_0/img46.jpg,Images/YouCook-video0027-shot5_0/img57.jpg,Images/YouCook-video0027-shot5_0/img107.jpg,Images/YouCook-video0027-shot5_0/img115.jpg,Images/YouCook-video0027-shot5_0/img127.jpg,Images/YouCook-video0027-shot5_0/img130.jpg,1474,11,0,2022-06-15_09h14.19.801,annotation,2021.2.3,Win32,60.08532116,,
,,,,,,,,,,,,,,,,,-0.415104167,-0.205729167,1,0,0,image_5,0,54,54,12,1,731,The man in the front has just started raising the the camera back up to his eyes from it being at the lowest point. ,H,1,5,MSR-VTT-videoTestVideo_video8959-shot2_0,Images/MSR-VTT-videoTestVideo_video8959-shot2_0/img0.jpg,Images/MSR-VTT-videoTestVideo_video8959-shot2_0/img5.jpg,Images/MSR-VTT-videoTestVideo_video8959-shot2_0/img10.jpg,Images/MSR-VTT-videoTestVideo_video8959-shot2_0/img13.jpg,Images/MSR-VTT-videoTestVideo_video8959-shot2_0/img16.jpg,Images/MSR-VTT-videoTestVideo_video8959-shot2_0/img24.jpg,Images/MSR-VTT-videoTestVideo_video8959-shot2_0/img26.jpg,Images/MSR-VTT-videoTestVideo_video8959-shot2_0/img28.jpg,Images/MSR-VTT-videoTestVideo_video8959-shot2_0/img30.jpg,Images/MSR-VTT-videoTestVideo_video8959-shot2_0/img37.jpg,1800,11,0,2022-06-15_09h14.19.801,annotation,2021.2.3,Win32,60.08532116,,
,,,,,,,,,,,,,,,,,0.484635417,0.072916667,1,0,0,image_4,0,55,55,33,1,1440,A woman sitting in the back of a wagon.,M,0,8,video-storytelling-videocamping_dBXYM3dQTSo-shot10_1,Images/video-storytelling-videocamping_dBXYM3dQTSo-shot10_1/img267.jpg,Images/video-storytelling-videocamping_dBXYM3dQTSo-shot10_1/img278.jpg,Images/video-storytelling-videocamping_dBXYM3dQTSo-shot10_1/img281.jpg,Images/video-storytelling-videocamping_dBXYM3dQTSo-shot10_1/img287.jpg,Images/video-storytelling-videocamping_dBXYM3dQTSo-shot10_1/img294.jpg,Images/video-storytelling-videocamping_dBXYM3dQTSo-shot10_1/img323.jpg,Images/video-storytelling-videocamping_dBXYM3dQTSo-shot10_1/img335.jpg,Images/video-storytelling-videocamping_dBXYM3dQTSo-shot10_1/img350.jpg,Images/video-storytelling-videocamping_dBXYM3dQTSo-shot10_1/img354.jpg,Images/video-storytelling-videocamping_dBXYM3dQTSo-shot10_1/img362.jpg,1241,11,0,2022-06-15_09h14.19.801,annotation,2021.2.3,Win32,60.08532116,,
,,,,,,,,,,,,,,,,,0.488541667,0.1484375,1,0,0,image_4,0,56,56,19,1,1534,A woman standing next to a bus on the side of the road.,M,0,7,MSR-VTT-videoTestVideo_video8022-shot1_1,Images/MSR-VTT-videoTestVideo_video8022-shot1_1/img102.jpg,Images/MSR-VTT-videoTestVideo_video8022-shot1_1/img110.jpg,Images/MSR-VTT-videoTestVideo_video8022-shot1_1/img117.jpg,Images/MSR-VTT-videoTestVideo_video8022-shot1_1/img120.jpg,Images/MSR-VTT-videoTestVideo_video8022-shot1_1/img125.jpg,Images/MSR-VTT-videoTestVideo_video8022-shot1_1/img133.jpg,Images/MSR-VTT-videoTestVideo_video8022-shot1_1/img146.jpg,Images/MSR-VTT-videoTestVideo_video8022-shot1_1/img157.jpg,Images/MSR-VTT-videoTestVideo_video8022-shot1_1/img168.jpg,Images/MSR-VTT-videoTestVideo_video8022-shot1_1/img178.jpg,1615,11,0,2022-06-15_09h14.19.801,annotation,2021.2.3,Win32,60.08532116,,
,,,,,,,,,,,,,,,,,-0.40859375,0.127604167,1,0,0,image_0,0,57,57,11,1,1742,A person is holding a cell phone in his hands.,M,0,1,MSR-VTT-videoTestVideo_video7560-shot1_1,Images/MSR-VTT-videoTestVideo_video7560-shot1_1/img80.jpg,Images/MSR-VTT-videoTestVideo_video7560-shot1_1/img86.jpg,Images/MSR-VTT-videoTestVideo_video7560-shot1_1/img89.jpg,Images/MSR-VTT-videoTestVideo_video7560-shot1_1/img94.jpg,Images/MSR-VTT-videoTestVideo_video7560-shot1_1/img108.jpg,Images/MSR-VTT-videoTestVideo_video7560-shot1_1/img117.jpg,Images/MSR-VTT-videoTestVideo_video7560-shot1_1/img124.jpg,Images/MSR-VTT-videoTestVideo_video7560-shot1_1/img125.jpg,Images/MSR-VTT-videoTestVideo_video7560-shot1_1/img130.jpg,Images/MSR-VTT-videoTestVideo_video7560-shot1_1/img134.jpg,71,11,0,2022-06-15_09h14.19.801,annotation,2021.2.3,Win32,60.08532116,,
,,,,,,,,,,,,,,,,,0.445572917,0.1640625,1,0,0,image_4,0,58,58,48,1,1223,A person cooking a bowl of food in a kitchen.,M,1,3,YouCook-video0008-shot1_1,Images/YouCook-video0008-shot1_1/img458.jpg,Images/YouCook-video0008-shot1_1/img498.jpg,Images/YouCook-video0008-shot1_1/img545.jpg,Images/YouCook-video0008-shot1_1/img553.jpg,Images/YouCook-video0008-shot1_1/img589.jpg,Images/YouCook-video0008-shot1_1/img603.jpg,Images/YouCook-video0008-shot1_1/img653.jpg,Images/YouCook-video0008-shot1_1/img692.jpg,Images/YouCook-video0008-shot1_1/img742.jpg,Images/YouCook-video0008-shot1_1/img763.jpg,241,11,0,2022-06-15_09h14.19.801,annotation,2021.2.3,Win32,60.08532116,,
,,,,,,,,,,,,,,,,,-0.475,0.109375,1,0,0,image_0,0,59,59,14,1,1849,A person holding a plate of chocolate icing on top of a plate.,M,1,7,MSR-VTT-videoTestVideo_video9585-shot1_0,Images/MSR-VTT-videoTestVideo_video9585-shot1_0/img0.jpg,Images/MSR-VTT-videoTestVideo_video9585-shot1_0/img36.jpg,Images/MSR-VTT-videoTestVideo_video9585-shot1_0/img47.jpg,Images/MSR-VTT-videoTestVideo_video9585-shot1_0/img55.jpg,Images/MSR-VTT-videoTestVideo_video9585-shot1_0/img84.jpg,Images/MSR-VTT-videoTestVideo_video9585-shot1_0/img90.jpg,Images/MSR-VTT-videoTestVideo_video9585-shot1_0/img115.jpg,Images/MSR-VTT-videoTestVideo_video9585-shot1_0/img133.jpg,Images/MSR-VTT-videoTestVideo_video9585-shot1_0/img142.jpg,Images/MSR-VTT-videoTestVideo_video9585-shot1_0/img148.jpg,613,11,0,2022-06-15_09h14.19.801,annotation,2021.2.3,Win32,60.08532116,,
,,,,,,,,,,,,,,,,,0.027604167,-0.131510417,1,0,0,image_7,0,60,60,1,1,271,"A girl has her head facing slightly to the right with raised eyebrows, while her left hand is raised roughly to the level of her mouth",H,1,4,MSR-VTT-videoTestVideo_video9454-shot0_2,Images/MSR-VTT-videoTestVideo_video9454-shot0_2/img515.jpg,Images/MSR-VTT-videoTestVideo_video9454-shot0_2/img532.jpg,Images/MSR-VTT-videoTestVideo_video9454-shot0_2/img538.jpg,Images/MSR-VTT-videoTestVideo_video9454-shot0_2/img564.jpg,Images/MSR-VTT-videoTestVideo_video9454-shot0_2/img584.jpg,Images/MSR-VTT-videoTestVideo_video9454-shot0_2/img622.jpg,Images/MSR-VTT-videoTestVideo_video9454-shot0_2/img630.jpg,Images/MSR-VTT-videoTestVideo_video9454-shot0_2/img640.jpg,Images/MSR-VTT-videoTestVideo_video9454-shot0_2/img645.jpg,Images/MSR-VTT-videoTestVideo_video9454-shot0_2/img648.jpg,712,11,0,2022-06-15_09h14.19.801,annotation,2021.2.3,Win32,60.08532116,,
,,,,,,,,,,,,,,,,,-0.01796875,0.15625,1,0,0,image_2,0,61,61,61,1,3,A grey elephant with golden leaves on it. ,H,,2,open-images-1745_0ed62fe71809b2f5,Checks/check4/open-images-2609_3f72daeb23764ecfimg6.jpg,Checks/check4/open-images-1928_60679e2899870e08img1.jpg,Checks/check4/open-images-1745_0ed62fe71809b2f5img2.jpg,Checks/check4/open-images-1811_9ae6351c7f7565edimg0.jpg,Checks/check4/open-images-1721_6f04da11945ea492img3.jpg,Checks/check4/open-images-1907_5f9be3e4ea5e22c7img2.jpg,Checks/check4/open-images-580_0ddffb9c25141999img1.jpg,Checks/check4/open-images-2924_0645dcbcf998fed9img3.jpg,Checks/check4/open-images-869_856ecbcb5faf76e3img8.jpg,Checks/check4/open-images-250_02039517e63a91fbimg1.jpg,,,1,2022-06-15_09h14.19.801,annotation,2021.2.3,Win32,60.08532116,,
,,,,,,,,,,,,,,,,,-0.195052083,0.111979167,1,0,0,image_1,0,62,62,55,1,1964,A couple of people standing in front of a fence.,M,0,2,MSR-VTT-videoTestVideo_video8242-shot0_0,Images/MSR-VTT-videoTestVideo_video8242-shot0_0/img0.jpg,Images/MSR-VTT-videoTestVideo_video8242-shot0_0/img13.jpg,Images/MSR-VTT-videoTestVideo_video8242-shot0_0/img15.jpg,Images/MSR-VTT-videoTestVideo_video8242-shot0_0/img17.jpg,Images/MSR-VTT-videoTestVideo_video8242-shot0_0/img19.jpg,Images/MSR-VTT-videoTestVideo_video8242-shot0_0/img21.jpg,Images/MSR-VTT-videoTestVideo_video8242-shot0_0/img22.jpg,Images/MSR-VTT-videoTestVideo_video8242-shot0_0/img23.jpg,Images/MSR-VTT-videoTestVideo_video8242-shot0_0/img28.jpg,Images/MSR-VTT-videoTestVideo_video8242-shot0_0/img36.jpg,903,11,0,2022-06-15_09h14.19.801,annotation,2021.2.3,Win32,60.08532116,,
,,,,,,,,,,,,,,,,,,,,,,,,,,,,,,,,,,,,,,,,,,,,,,,2022-06-15_09h14.19.801,annotation,2021.2.3,Win32,60.08532116,space,23.1807
