mturk,key_resp_2.keys,key_resp_2.rt,key_resp_3.keys,key_resp_3.rt,mouse_2.x,mouse_2.y,mouse_2.leftButton,mouse_2.midButton,mouse_2.rightButton,mouse_2.clicked_name,key_resp_5.keys,key_resp_5.rt,key_resp.keys,key_resp.rt,key_resp_6.keys,key_resp_6.rt,mouse.x,mouse.y,mouse.leftButton,mouse.midButton,mouse.rightButton,mouse.clicked_name,trials.thisRepN,trials.thisTrialN,trials.thisN,trials.thisIndex,trials.ran,N,caption,class_caption,model_guessed,target_idx,image_set,img1,img2,img3,img4,img5,img6,img7,img8,img9,img10,Q_id,block,is_check,date,expName,psychopyVersion,OS,frameRate,key_resp_7.keys,key_resp_7.rt
2782614,space,49.811,space,5.021,0.251302083,0.087239583,1,0,0,ex4,space,4.454,space,24.049,space,3.134,0.447916667,0.151041667,1,0,0,image_4,0,0,0,35,1,946,The person in red is pulling the person on the ground up.  You can see the entire pitcher's mound in the back with the edge of it right near the top of the image. ,H,0,3,MSR-VTT-videoTestVideo_video9876-shot1_0,Images/MSR-VTT-videoTestVideo_video9876-shot1_0/img0.jpg,Images/MSR-VTT-videoTestVideo_video9876-shot1_0/img2.jpg,Images/MSR-VTT-videoTestVideo_video9876-shot1_0/img4.jpg,Images/MSR-VTT-videoTestVideo_video9876-shot1_0/img6.jpg,Images/MSR-VTT-videoTestVideo_video9876-shot1_0/img7.jpg,Images/MSR-VTT-videoTestVideo_video9876-shot1_0/img9.jpg,Images/MSR-VTT-videoTestVideo_video9876-shot1_0/img13.jpg,Images/MSR-VTT-videoTestVideo_video9876-shot1_0/img17.jpg,Images/MSR-VTT-videoTestVideo_video9876-shot1_0/img19.jpg,Images/MSR-VTT-videoTestVideo_video9876-shot1_0/img21.jpg,1839,8,0,2022-06-15_08h07.36.876,annotation,2021.2.3,Win32,60.0024001,,
,,,,,,,,,,,,,,,,,0.533854167,0.145833333,1,0,0,image_4,0,1,1,6,1,1634,A group of people walking down a busy street.,M,0,6,MSR-VTT-videoTestVideo_video8022-shot1_1,Images/MSR-VTT-videoTestVideo_video8022-shot1_1/img102.jpg,Images/MSR-VTT-videoTestVideo_video8022-shot1_1/img110.jpg,Images/MSR-VTT-videoTestVideo_video8022-shot1_1/img117.jpg,Images/MSR-VTT-videoTestVideo_video8022-shot1_1/img120.jpg,Images/MSR-VTT-videoTestVideo_video8022-shot1_1/img125.jpg,Images/MSR-VTT-videoTestVideo_video8022-shot1_1/img133.jpg,Images/MSR-VTT-videoTestVideo_video8022-shot1_1/img146.jpg,Images/MSR-VTT-videoTestVideo_video8022-shot1_1/img157.jpg,Images/MSR-VTT-videoTestVideo_video8022-shot1_1/img168.jpg,Images/MSR-VTT-videoTestVideo_video8022-shot1_1/img178.jpg,2003,8,0,2022-06-15_08h07.36.876,annotation,2021.2.3,Win32,60.0024001,,
,,,,,,,,,,,,,,,,,0.024739583,-0.151041667,1,0,0,image_7,0,2,2,19,1,1502,A group of people on a beach with surfboards.,M,0,6,MSR-VTT-videoTestVideo_video8079-shot1_0,Images/MSR-VTT-videoTestVideo_video8079-shot1_0/img0.jpg,Images/MSR-VTT-videoTestVideo_video8079-shot1_0/img6.jpg,Images/MSR-VTT-videoTestVideo_video8079-shot1_0/img12.jpg,Images/MSR-VTT-videoTestVideo_video8079-shot1_0/img19.jpg,Images/MSR-VTT-videoTestVideo_video8079-shot1_0/img21.jpg,Images/MSR-VTT-videoTestVideo_video8079-shot1_0/img36.jpg,Images/MSR-VTT-videoTestVideo_video8079-shot1_0/img50.jpg,Images/MSR-VTT-videoTestVideo_video8079-shot1_0/img69.jpg,Images/MSR-VTT-videoTestVideo_video8079-shot1_0/img85.jpg,Images/MSR-VTT-videoTestVideo_video8079-shot1_0/img88.jpg,139,8,0,2022-06-15_08h07.36.876,annotation,2021.2.3,Win32,60.0024001,,
,,,,,,,,,,,,,,,,,-0.248697917,-0.135416667,1,0,0,image_6,0,3,3,4,1,2047,A couple of people on a boat in the water.,M,1,2,MSR-VTT-videoTestVideo_video9342-shot1_2,Images/MSR-VTT-videoTestVideo_video9342-shot1_2/img140.jpg,Images/MSR-VTT-videoTestVideo_video9342-shot1_2/img165.jpg,Images/MSR-VTT-videoTestVideo_video9342-shot1_2/img173.jpg,Images/MSR-VTT-videoTestVideo_video9342-shot1_2/img180.jpg,Images/MSR-VTT-videoTestVideo_video9342-shot1_2/img194.jpg,Images/MSR-VTT-videoTestVideo_video9342-shot1_2/img205.jpg,Images/MSR-VTT-videoTestVideo_video9342-shot1_2/img224.jpg,Images/MSR-VTT-videoTestVideo_video9342-shot1_2/img241.jpg,Images/MSR-VTT-videoTestVideo_video9342-shot1_2/img250.jpg,Images/MSR-VTT-videoTestVideo_video9342-shot1_2/img256.jpg,433,8,0,2022-06-15_08h07.36.876,annotation,2021.2.3,Win32,60.0024001,,
,,,,,,,,,,,,,,,,,0.4609375,0.1171875,1,0,0,image_4,0,4,4,37,1,1730,A man standing on top of a field with a Frisbee.,M,0,3,MSR-VTT-videoTestVideo_video7776-shot0_1,Images/MSR-VTT-videoTestVideo_video7776-shot0_1/img171.jpg,Images/MSR-VTT-videoTestVideo_video7776-shot0_1/img193.jpg,Images/MSR-VTT-videoTestVideo_video7776-shot0_1/img202.jpg,Images/MSR-VTT-videoTestVideo_video7776-shot0_1/img250.jpg,Images/MSR-VTT-videoTestVideo_video7776-shot0_1/img288.jpg,Images/MSR-VTT-videoTestVideo_video7776-shot0_1/img325.jpg,Images/MSR-VTT-videoTestVideo_video7776-shot0_1/img346.jpg,Images/MSR-VTT-videoTestVideo_video7776-shot0_1/img350.jpg,Images/MSR-VTT-videoTestVideo_video7776-shot0_1/img353.jpg,Images/MSR-VTT-videoTestVideo_video7776-shot0_1/img358.jpg,1352,8,0,2022-06-15_08h07.36.876,annotation,2021.2.3,Win32,60.0024001,,
,,,,,,,,,,,,,,,,,0.2578125,-0.1796875,1,0,0,image_8,0,5,5,3,1,1687,A group of kids running around in a field.,M,0,6,MSR-VTT-videoTestVideo_video9523-shot1_4,Images/MSR-VTT-videoTestVideo_video9523-shot1_4/img259.jpg,Images/MSR-VTT-videoTestVideo_video9523-shot1_4/img261.jpg,Images/MSR-VTT-videoTestVideo_video9523-shot1_4/img263.jpg,Images/MSR-VTT-videoTestVideo_video9523-shot1_4/img267.jpg,Images/MSR-VTT-videoTestVideo_video9523-shot1_4/img271.jpg,Images/MSR-VTT-videoTestVideo_video9523-shot1_4/img273.jpg,Images/MSR-VTT-videoTestVideo_video9523-shot1_4/img276.jpg,Images/MSR-VTT-videoTestVideo_video9523-shot1_4/img285.jpg,Images/MSR-VTT-videoTestVideo_video9523-shot1_4/img294.jpg,Images/MSR-VTT-videoTestVideo_video9523-shot1_4/img297.jpg,2072,8,0,2022-06-15_08h07.36.876,annotation,2021.2.3,Win32,60.0024001,,
,,,,,,,,,,,,,,,,,0.208333333,0.12890625,1,0,0,image_3,0,6,6,38,1,1080,A woman is standing next to a fence.,M,0,3,video-storytelling-videocamping_dBXYM3dQTSo-shot75_2,Images/video-storytelling-videocamping_dBXYM3dQTSo-shot75_2/img352.jpg,Images/video-storytelling-videocamping_dBXYM3dQTSo-shot75_2/img380.jpg,Images/video-storytelling-videocamping_dBXYM3dQTSo-shot75_2/img388.jpg,Images/video-storytelling-videocamping_dBXYM3dQTSo-shot75_2/img404.jpg,Images/video-storytelling-videocamping_dBXYM3dQTSo-shot75_2/img410.jpg,Images/video-storytelling-videocamping_dBXYM3dQTSo-shot75_2/img427.jpg,Images/video-storytelling-videocamping_dBXYM3dQTSo-shot75_2/img441.jpg,Images/video-storytelling-videocamping_dBXYM3dQTSo-shot75_2/img481.jpg,Images/video-storytelling-videocamping_dBXYM3dQTSo-shot75_2/img503.jpg,Images/video-storytelling-videocamping_dBXYM3dQTSo-shot75_2/img531.jpg,123,8,0,2022-06-15_08h07.36.876,annotation,2021.2.3,Win32,60.0024001,,
,,,,,,,,,,,,,,,,,0.30859375,-0.143229167,1,0,0,image_8,0,7,7,20,1,1464,A group of horses that are standing in the air.,M,0,9,MSR-VTT-videoTestVideo_video8547-shot1_1,Images/MSR-VTT-videoTestVideo_video8547-shot1_1/img35.jpg,Images/MSR-VTT-videoTestVideo_video8547-shot1_1/img41.jpg,Images/MSR-VTT-videoTestVideo_video8547-shot1_1/img43.jpg,Images/MSR-VTT-videoTestVideo_video8547-shot1_1/img44.jpg,Images/MSR-VTT-videoTestVideo_video8547-shot1_1/img46.jpg,Images/MSR-VTT-videoTestVideo_video8547-shot1_1/img49.jpg,Images/MSR-VTT-videoTestVideo_video8547-shot1_1/img52.jpg,Images/MSR-VTT-videoTestVideo_video8547-shot1_1/img57.jpg,Images/MSR-VTT-videoTestVideo_video8547-shot1_1/img60.jpg,Images/MSR-VTT-videoTestVideo_video8547-shot1_1/img64.jpg,615,8,0,2022-06-15_08h07.36.876,annotation,2021.2.3,Win32,60.0024001,,
,,,,,,,,,,,,,,,,,0.225260417,-0.158854167,1,0,0,image_8,0,8,8,55,1,1760,A group of people standing on a basketball court.,M,0,1,MSR-VTT-videoTestVideo_video8509-shot1_1,Images/MSR-VTT-videoTestVideo_video8509-shot1_1/img62.jpg,Images/MSR-VTT-videoTestVideo_video8509-shot1_1/img77.jpg,Images/MSR-VTT-videoTestVideo_video8509-shot1_1/img82.jpg,Images/MSR-VTT-videoTestVideo_video8509-shot1_1/img102.jpg,Images/MSR-VTT-videoTestVideo_video8509-shot1_1/img113.jpg,Images/MSR-VTT-videoTestVideo_video8509-shot1_1/img116.jpg,Images/MSR-VTT-videoTestVideo_video8509-shot1_1/img139.jpg,Images/MSR-VTT-videoTestVideo_video8509-shot1_1/img143.jpg,Images/MSR-VTT-videoTestVideo_video8509-shot1_1/img146.jpg,Images/MSR-VTT-videoTestVideo_video8509-shot1_1/img150.jpg,997,8,0,2022-06-15_08h07.36.876,annotation,2021.2.3,Win32,60.0024001,,
,,,,,,,,,,,,,,,,,0.46875,0.110677083,1,0,0,image_4,0,9,9,10,1,1157,A woman holding a cell phone in her hand.,M,0,5,MSR-VTT-videoTestVideo_video8952-shot1_1,Images/MSR-VTT-videoTestVideo_video8952-shot1_1/img104.jpg,Images/MSR-VTT-videoTestVideo_video8952-shot1_1/img107.jpg,Images/MSR-VTT-videoTestVideo_video8952-shot1_1/img112.jpg,Images/MSR-VTT-videoTestVideo_video8952-shot1_1/img115.jpg,Images/MSR-VTT-videoTestVideo_video8952-shot1_1/img117.jpg,Images/MSR-VTT-videoTestVideo_video8952-shot1_1/img119.jpg,Images/MSR-VTT-videoTestVideo_video8952-shot1_1/img122.jpg,Images/MSR-VTT-videoTestVideo_video8952-shot1_1/img127.jpg,Images/MSR-VTT-videoTestVideo_video8952-shot1_1/img129.jpg,Images/MSR-VTT-videoTestVideo_video8952-shot1_1/img130.jpg,745,8,0,2022-06-15_08h07.36.876,annotation,2021.2.3,Win32,60.0024001,,
,,,,,,,,,,,,,,,,,0.223958333,0.1015625,1,0,0,image_3,0,10,10,18,1,1448,A person holding a cell phone in their hand.,M,0,8,MSR-VTT-videoTestVideo_video9389-shot1_0,Images/MSR-VTT-videoTestVideo_video9389-shot1_0/img0.jpg,Images/MSR-VTT-videoTestVideo_video9389-shot1_0/img52.jpg,Images/MSR-VTT-videoTestVideo_video9389-shot1_0/img102.jpg,Images/MSR-VTT-videoTestVideo_video9389-shot1_0/img108.jpg,Images/MSR-VTT-videoTestVideo_video9389-shot1_0/img129.jpg,Images/MSR-VTT-videoTestVideo_video9389-shot1_0/img151.jpg,Images/MSR-VTT-videoTestVideo_video9389-shot1_0/img154.jpg,Images/MSR-VTT-videoTestVideo_video9389-shot1_0/img160.jpg,Images/MSR-VTT-videoTestVideo_video9389-shot1_0/img169.jpg,Images/MSR-VTT-videoTestVideo_video9389-shot1_0/img173.jpg,1483,8,0,2022-06-15_08h07.36.876,annotation,2021.2.3,Win32,60.0024001,,
,,,,,,,,,,,,,,,,,-0.477864583,-0.174479167,1,0,0,image_5,0,11,11,54,1,2069,A couple of people cutting flowers on a table.,M,0,3,MSR-VTT-videoTestVideo_video9279-shot1_1,Images/MSR-VTT-videoTestVideo_video9279-shot1_1/img47.jpg,Images/MSR-VTT-videoTestVideo_video9279-shot1_1/img49.jpg,Images/MSR-VTT-videoTestVideo_video9279-shot1_1/img54.jpg,Images/MSR-VTT-videoTestVideo_video9279-shot1_1/img63.jpg,Images/MSR-VTT-videoTestVideo_video9279-shot1_1/img72.jpg,Images/MSR-VTT-videoTestVideo_video9279-shot1_1/img146.jpg,Images/MSR-VTT-videoTestVideo_video9279-shot1_1/img154.jpg,Images/MSR-VTT-videoTestVideo_video9279-shot1_1/img155.jpg,Images/MSR-VTT-videoTestVideo_video9279-shot1_1/img157.jpg,Images/MSR-VTT-videoTestVideo_video9279-shot1_1/img159.jpg,286,8,0,2022-06-15_08h07.36.876,annotation,2021.2.3,Win32,60.0024001,,
,,,,,,,,,,,,,,,,,-0.559895833,-0.119791667,1,0,0,image_5,0,12,12,24,1,676,There is a yellow object in the sky that is pretty close to the camera.  You can't see any fingers of a person. ,H,1,6,MSR-VTT-videoTestVideo_video9955-shot1_1,Images/MSR-VTT-videoTestVideo_video9955-shot1_1/img78.jpg,Images/MSR-VTT-videoTestVideo_video9955-shot1_1/img95.jpg,Images/MSR-VTT-videoTestVideo_video9955-shot1_1/img98.jpg,Images/MSR-VTT-videoTestVideo_video9955-shot1_1/img100.jpg,Images/MSR-VTT-videoTestVideo_video9955-shot1_1/img103.jpg,Images/MSR-VTT-videoTestVideo_video9955-shot1_1/img108.jpg,Images/MSR-VTT-videoTestVideo_video9955-shot1_1/img111.jpg,Images/MSR-VTT-videoTestVideo_video9955-shot1_1/img114.jpg,Images/MSR-VTT-videoTestVideo_video9955-shot1_1/img117.jpg,Images/MSR-VTT-videoTestVideo_video9955-shot1_1/img122.jpg,207,8,0,2022-06-15_08h07.36.876,annotation,2021.2.3,Win32,60.0024001,,
,,,,,,,,,,,,,,,,,-0.235677083,0.12109375,1,0,0,image_1,0,13,13,62,1,4,A penguin holding a piece of paper with text on it. ,H,,1,open-images-2521_074d6af730ed17a6,Checks/check5/open-images-509_4d8bd994cb8c6eaeimg0.jpg,Checks/check5/open-images-2521_074d6af730ed17a6img1.jpg,Checks/check5/open-images-1365_a00a5fde334ae45aimg4.jpg,Checks/check5/open-images-1602_44092afdeab39e73img6.jpg,Checks/check5/open-images-1032_059f3cdfb85ee0ceimg3.jpg,Checks/check5/open-images-727_25b77fff36adba66img2.jpg,Checks/check5/open-images-2208_0fb92b9978d98575img2.jpg,Checks/check5/open-images-1305_05769e6abb16fdc8img9.jpg,Checks/check5/open-images-2676_052dbf7b4899430bimg1.jpg,Checks/check5/open-images-2569_1e81d79bb796a2dbimg7.jpg,,,1,2022-06-15_08h07.36.876,annotation,2021.2.3,Win32,60.0024001,,
,,,,,,,,,,,,,,,,,-0.458333333,-0.18359375,1,0,0,image_5,0,14,14,49,1,1775,A man in a suit and tie standing in front of a crowd.,M,0,5,MSR-VTT-videoTestVideo_video8959-shot2_0,Images/MSR-VTT-videoTestVideo_video8959-shot2_0/img0.jpg,Images/MSR-VTT-videoTestVideo_video8959-shot2_0/img5.jpg,Images/MSR-VTT-videoTestVideo_video8959-shot2_0/img10.jpg,Images/MSR-VTT-videoTestVideo_video8959-shot2_0/img13.jpg,Images/MSR-VTT-videoTestVideo_video8959-shot2_0/img16.jpg,Images/MSR-VTT-videoTestVideo_video8959-shot2_0/img24.jpg,Images/MSR-VTT-videoTestVideo_video8959-shot2_0/img26.jpg,Images/MSR-VTT-videoTestVideo_video8959-shot2_0/img28.jpg,Images/MSR-VTT-videoTestVideo_video8959-shot2_0/img30.jpg,Images/MSR-VTT-videoTestVideo_video8959-shot2_0/img37.jpg,567,8,0,2022-06-15_08h07.36.876,annotation,2021.2.3,Win32,60.0024001,,
,,,,,,,,,,,,,,,,,0.256510417,0.1484375,1,0,0,image_3,0,15,15,41,1,1574,A man standing in the middle of a room.,M,0,1,MSR-VTT-videoTestVideo_video9175-shot1_1,Images/MSR-VTT-videoTestVideo_video9175-shot1_1/img60.jpg,Images/MSR-VTT-videoTestVideo_video9175-shot1_1/img62.jpg,Images/MSR-VTT-videoTestVideo_video9175-shot1_1/img70.jpg,Images/MSR-VTT-videoTestVideo_video9175-shot1_1/img76.jpg,Images/MSR-VTT-videoTestVideo_video9175-shot1_1/img79.jpg,Images/MSR-VTT-videoTestVideo_video9175-shot1_1/img85.jpg,Images/MSR-VTT-videoTestVideo_video9175-shot1_1/img90.jpg,Images/MSR-VTT-videoTestVideo_video9175-shot1_1/img96.jpg,Images/MSR-VTT-videoTestVideo_video9175-shot1_1/img106.jpg,Images/MSR-VTT-videoTestVideo_video9175-shot1_1/img111.jpg,1041,8,0,2022-06-15_08h07.36.876,annotation,2021.2.3,Win32,60.0024001,,
,,,,,,,,,,,,,,,,,0.234375,-0.139322917,1,0,0,image_8,0,16,16,21,1,165,The woman's eyes are mostly closed. Her hands are not visible.,H,0,8,MSR-VTT-videoTestVideo_video9196-shot1_1,Images/MSR-VTT-videoTestVideo_video9196-shot1_1/img24.jpg,Images/MSR-VTT-videoTestVideo_video9196-shot1_1/img29.jpg,Images/MSR-VTT-videoTestVideo_video9196-shot1_1/img32.jpg,Images/MSR-VTT-videoTestVideo_video9196-shot1_1/img35.jpg,Images/MSR-VTT-videoTestVideo_video9196-shot1_1/img48.jpg,Images/MSR-VTT-videoTestVideo_video9196-shot1_1/img66.jpg,Images/MSR-VTT-videoTestVideo_video9196-shot1_1/img81.jpg,Images/MSR-VTT-videoTestVideo_video9196-shot1_1/img89.jpg,Images/MSR-VTT-videoTestVideo_video9196-shot1_1/img98.jpg,Images/MSR-VTT-videoTestVideo_video9196-shot1_1/img107.jpg,1817,8,0,2022-06-15_08h07.36.876,annotation,2021.2.3,Win32,60.0024001,,
,,,,,,,,,,,,,,,,,-0.46484375,0.092447917,1,0,0,image_0,0,17,17,32,1,671,You can just start to see the ankles of the red person that is standing to the right of the text on the green wall.  The image is extremely blurry. ,H,0,2,MSR-VTT-videoTestVideo_video9363-shot2_0,Images/MSR-VTT-videoTestVideo_video9363-shot2_0/img3.jpg,Images/MSR-VTT-videoTestVideo_video9363-shot2_0/img7.jpg,Images/MSR-VTT-videoTestVideo_video9363-shot2_0/img8.jpg,Images/MSR-VTT-videoTestVideo_video9363-shot2_0/img9.jpg,Images/MSR-VTT-videoTestVideo_video9363-shot2_0/img10.jpg,Images/MSR-VTT-videoTestVideo_video9363-shot2_0/img14.jpg,Images/MSR-VTT-videoTestVideo_video9363-shot2_0/img15.jpg,Images/MSR-VTT-videoTestVideo_video9363-shot2_0/img18.jpg,Images/MSR-VTT-videoTestVideo_video9363-shot2_0/img22.jpg,Images/MSR-VTT-videoTestVideo_video9363-shot2_0/img26.jpg,859,8,0,2022-06-15_08h07.36.876,annotation,2021.2.3,Win32,60.0024001,,
,,,,,,,,,,,,,,,,,-0.450520833,-0.162760417,1,0,0,image_5,0,18,18,48,1,1417,A man taking a picture of a camera.,M,0,7,MSR-VTT-videoTestVideo_video9968-shot1_0,Images/MSR-VTT-videoTestVideo_video9968-shot1_0/img0.jpg,Images/MSR-VTT-videoTestVideo_video9968-shot1_0/img4.jpg,Images/MSR-VTT-videoTestVideo_video9968-shot1_0/img8.jpg,Images/MSR-VTT-videoTestVideo_video9968-shot1_0/img13.jpg,Images/MSR-VTT-videoTestVideo_video9968-shot1_0/img17.jpg,Images/MSR-VTT-videoTestVideo_video9968-shot1_0/img22.jpg,Images/MSR-VTT-videoTestVideo_video9968-shot1_0/img52.jpg,Images/MSR-VTT-videoTestVideo_video9968-shot1_0/img129.jpg,Images/MSR-VTT-videoTestVideo_video9968-shot1_0/img133.jpg,Images/MSR-VTT-videoTestVideo_video9968-shot1_0/img137.jpg,507,8,0,2022-06-15_08h07.36.876,annotation,2021.2.3,Win32,60.0024001,,
,,,,,,,,,,,,,,,,,-0.02734375,-0.1875,1,0,0,image_7,0,19,19,50,1,1631,A street scene with cars and trucks on the road.,M,0,9,MSR-VTT-videoTestVideo_video8468-shot1_2,Images/MSR-VTT-videoTestVideo_video8468-shot1_2/img158.jpg,Images/MSR-VTT-videoTestVideo_video8468-shot1_2/img159.jpg,Images/MSR-VTT-videoTestVideo_video8468-shot1_2/img161.jpg,Images/MSR-VTT-videoTestVideo_video8468-shot1_2/img166.jpg,Images/MSR-VTT-videoTestVideo_video8468-shot1_2/img169.jpg,Images/MSR-VTT-videoTestVideo_video8468-shot1_2/img171.jpg,Images/MSR-VTT-videoTestVideo_video8468-shot1_2/img176.jpg,Images/MSR-VTT-videoTestVideo_video8468-shot1_2/img178.jpg,Images/MSR-VTT-videoTestVideo_video8468-shot1_2/img189.jpg,Images/MSR-VTT-videoTestVideo_video8468-shot1_2/img194.jpg,1929,8,0,2022-06-15_08h07.36.876,annotation,2021.2.3,Win32,60.0024001,,
,,,,,,,,,,,,,,,,,-0.02734375,-0.13671875,1,0,0,image_7,0,20,20,33,1,1460,A little boy wearing a colorful hat and a colorful hat.,M,0,7,video-storytelling-videobirthday__amwPjAcoC8-shot80_5,Images/video-storytelling-videobirthday__amwPjAcoC8-shot80_5/img277.jpg,Images/video-storytelling-videobirthday__amwPjAcoC8-shot80_5/img290.jpg,Images/video-storytelling-videobirthday__amwPjAcoC8-shot80_5/img292.jpg,Images/video-storytelling-videobirthday__amwPjAcoC8-shot80_5/img293.jpg,Images/video-storytelling-videobirthday__amwPjAcoC8-shot80_5/img297.jpg,Images/video-storytelling-videobirthday__amwPjAcoC8-shot80_5/img298.jpg,Images/video-storytelling-videobirthday__amwPjAcoC8-shot80_5/img300.jpg,Images/video-storytelling-videobirthday__amwPjAcoC8-shot80_5/img301.jpg,Images/video-storytelling-videobirthday__amwPjAcoC8-shot80_5/img303.jpg,Images/video-storytelling-videobirthday__amwPjAcoC8-shot80_5/img304.jpg,206,8,0,2022-06-15_08h07.36.876,annotation,2021.2.3,Win32,60.0024001,,
,,,,,,,,,,,,,,,,,-0.002604167,-0.170572917,1,0,0,image_7,0,21,21,9,1,328,Part of the back wheel has just gone off the left side of the image but you can still see a good portion of the wheel. ,H,1,7,MSR-VTT-videoTestVideo_video9996-shot1_3,Images/MSR-VTT-videoTestVideo_video9996-shot1_3/img163.jpg,Images/MSR-VTT-videoTestVideo_video9996-shot1_3/img168.jpg,Images/MSR-VTT-videoTestVideo_video9996-shot1_3/img171.jpg,Images/MSR-VTT-videoTestVideo_video9996-shot1_3/img174.jpg,Images/MSR-VTT-videoTestVideo_video9996-shot1_3/img178.jpg,Images/MSR-VTT-videoTestVideo_video9996-shot1_3/img183.jpg,Images/MSR-VTT-videoTestVideo_video9996-shot1_3/img194.jpg,Images/MSR-VTT-videoTestVideo_video9996-shot1_3/img209.jpg,Images/MSR-VTT-videoTestVideo_video9996-shot1_3/img219.jpg,Images/MSR-VTT-videoTestVideo_video9996-shot1_3/img222.jpg,648,8,0,2022-06-15_08h07.36.876,annotation,2021.2.3,Win32,60.0024001,,
,,,,,,,,,,,,,,,,,0.485677083,0.09375,1,0,0,image_4,0,22,22,46,1,426,the spoon on his hand can be clearly seen on the far right of the image,H,0,5,video-storytelling-videocamping_EytINruY3-U-shot60_0,Images/video-storytelling-videocamping_EytINruY3-U-shot60_0/img0.jpg,Images/video-storytelling-videocamping_EytINruY3-U-shot60_0/img36.jpg,Images/video-storytelling-videocamping_EytINruY3-U-shot60_0/img54.jpg,Images/video-storytelling-videocamping_EytINruY3-U-shot60_0/img130.jpg,Images/video-storytelling-videocamping_EytINruY3-U-shot60_0/img136.jpg,Images/video-storytelling-videocamping_EytINruY3-U-shot60_0/img275.jpg,Images/video-storytelling-videocamping_EytINruY3-U-shot60_0/img281.jpg,Images/video-storytelling-videocamping_EytINruY3-U-shot60_0/img319.jpg,Images/video-storytelling-videocamping_EytINruY3-U-shot60_0/img344.jpg,Images/video-storytelling-videocamping_EytINruY3-U-shot60_0/img355.jpg,1272,8,0,2022-06-15_08h07.36.876,annotation,2021.2.3,Win32,60.0024001,,
,,,,,,,,,,,,,,,,,0.51171875,-0.186197917,1,0,0,image_9,0,23,23,29,1,860,In the darker oval at the bottom you can see the two words in white clearly but you don't see the entire darker oval. ,H,0,7,MSR-VTT-videoTestVideo_video7075-shot1_3,Images/MSR-VTT-videoTestVideo_video7075-shot1_3/img135.jpg,Images/MSR-VTT-videoTestVideo_video7075-shot1_3/img140.jpg,Images/MSR-VTT-videoTestVideo_video7075-shot1_3/img141.jpg,Images/MSR-VTT-videoTestVideo_video7075-shot1_3/img143.jpg,Images/MSR-VTT-videoTestVideo_video7075-shot1_3/img144.jpg,Images/MSR-VTT-videoTestVideo_video7075-shot1_3/img153.jpg,Images/MSR-VTT-videoTestVideo_video7075-shot1_3/img172.jpg,Images/MSR-VTT-videoTestVideo_video7075-shot1_3/img175.jpg,Images/MSR-VTT-videoTestVideo_video7075-shot1_3/img191.jpg,Images/MSR-VTT-videoTestVideo_video7075-shot1_3/img213.jpg,339,8,0,2022-06-15_08h07.36.876,annotation,2021.2.3,Win32,60.0024001,,
,,,,,,,,,,,,,,,,,-0.515625,0.118489583,1,0,0,image_0,0,24,24,40,1,610,The little girl in the blue dress is smiling with her eyes closed. The blue balloon she is holding is covering her right eye.,H,0,2,video-storytelling-videobirthday__amwPjAcoC8-shot68_6,Images/video-storytelling-videobirthday__amwPjAcoC8-shot68_6/img174.jpg,Images/video-storytelling-videobirthday__amwPjAcoC8-shot68_6/img176.jpg,Images/video-storytelling-videobirthday__amwPjAcoC8-shot68_6/img178.jpg,Images/video-storytelling-videobirthday__amwPjAcoC8-shot68_6/img181.jpg,Images/video-storytelling-videobirthday__amwPjAcoC8-shot68_6/img185.jpg,Images/video-storytelling-videobirthday__amwPjAcoC8-shot68_6/img188.jpg,Images/video-storytelling-videobirthday__amwPjAcoC8-shot68_6/img190.jpg,Images/video-storytelling-videobirthday__amwPjAcoC8-shot68_6/img193.jpg,Images/video-storytelling-videobirthday__amwPjAcoC8-shot68_6/img197.jpg,Images/video-storytelling-videobirthday__amwPjAcoC8-shot68_6/img201.jpg,252,8,0,2022-06-15_08h07.36.876,annotation,2021.2.3,Win32,60.0024001,,
,,,,,,,,,,,,,,,,,0.033854167,0.0859375,1,0,0,image_2,0,25,25,56,1,466,Everyone is looking down but is in the process of raising their heads back up,H,0,3,MSR-VTT-videoTestVideo_video7332-shot4_0,Images/MSR-VTT-videoTestVideo_video7332-shot4_0/img0.jpg,Images/MSR-VTT-videoTestVideo_video7332-shot4_0/img1.jpg,Images/MSR-VTT-videoTestVideo_video7332-shot4_0/img13.jpg,Images/MSR-VTT-videoTestVideo_video7332-shot4_0/img16.jpg,Images/MSR-VTT-videoTestVideo_video7332-shot4_0/img20.jpg,Images/MSR-VTT-videoTestVideo_video7332-shot4_0/img23.jpg,Images/MSR-VTT-videoTestVideo_video7332-shot4_0/img28.jpg,Images/MSR-VTT-videoTestVideo_video7332-shot4_0/img34.jpg,Images/MSR-VTT-videoTestVideo_video7332-shot4_0/img38.jpg,Images/MSR-VTT-videoTestVideo_video7332-shot4_0/img42.jpg,1894,8,0,2022-06-15_08h07.36.876,annotation,2021.2.3,Win32,60.0024001,,
,,,,,,,,,,,,,,,,,-0.204427083,-0.1171875,1,0,0,image_6,0,26,26,16,1,437,a blurry rolling pin in the middle of a bag filled with crushed item,H,0,7,MSR-VTT-videoTestVideo_video9921-shot1_3,Images/MSR-VTT-videoTestVideo_video9921-shot1_3/img277.jpg,Images/MSR-VTT-videoTestVideo_video9921-shot1_3/img278.jpg,Images/MSR-VTT-videoTestVideo_video9921-shot1_3/img279.jpg,Images/MSR-VTT-videoTestVideo_video9921-shot1_3/img281.jpg,Images/MSR-VTT-videoTestVideo_video9921-shot1_3/img282.jpg,Images/MSR-VTT-videoTestVideo_video9921-shot1_3/img284.jpg,Images/MSR-VTT-videoTestVideo_video9921-shot1_3/img287.jpg,Images/MSR-VTT-videoTestVideo_video9921-shot1_3/img290.jpg,Images/MSR-VTT-videoTestVideo_video9921-shot1_3/img297.jpg,Images/MSR-VTT-videoTestVideo_video9921-shot1_3/img309.jpg,1861,8,0,2022-06-15_08h07.36.876,annotation,2021.2.3,Win32,60.0024001,,
,,,,,,,,,,,,,,,,,0.015625,0.151041667,1,0,0,image_2,0,27,27,47,1,831,his back is to us and his arms are out straight with his fingertips pointed up,H,0,3,MSR-VTT-videoTestVideo_video8700-shot3_2,Images/MSR-VTT-videoTestVideo_video8700-shot3_2/img143.jpg,Images/MSR-VTT-videoTestVideo_video8700-shot3_2/img146.jpg,Images/MSR-VTT-videoTestVideo_video8700-shot3_2/img152.jpg,Images/MSR-VTT-videoTestVideo_video8700-shot3_2/img157.jpg,Images/MSR-VTT-videoTestVideo_video8700-shot3_2/img162.jpg,Images/MSR-VTT-videoTestVideo_video8700-shot3_2/img168.jpg,Images/MSR-VTT-videoTestVideo_video8700-shot3_2/img172.jpg,Images/MSR-VTT-videoTestVideo_video8700-shot3_2/img178.jpg,Images/MSR-VTT-videoTestVideo_video8700-shot3_2/img182.jpg,Images/MSR-VTT-videoTestVideo_video8700-shot3_2/img186.jpg,554,8,0,2022-06-15_08h07.36.876,annotation,2021.2.3,Win32,60.0024001,,
,,,,,,,,,,,,,,,,,-0.010416667,-0.135416667,1,0,0,image_7,0,28,28,25,1,2077,A little girl standing in front of a kitchen.,M,0,1,MSR-VTT-videoTestVideo_video7070-shot1_0,Images/MSR-VTT-videoTestVideo_video7070-shot1_0/img0.jpg,Images/MSR-VTT-videoTestVideo_video7070-shot1_0/img3.jpg,Images/MSR-VTT-videoTestVideo_video7070-shot1_0/img6.jpg,Images/MSR-VTT-videoTestVideo_video7070-shot1_0/img7.jpg,Images/MSR-VTT-videoTestVideo_video7070-shot1_0/img12.jpg,Images/MSR-VTT-videoTestVideo_video7070-shot1_0/img14.jpg,Images/MSR-VTT-videoTestVideo_video7070-shot1_0/img18.jpg,Images/MSR-VTT-videoTestVideo_video7070-shot1_0/img23.jpg,Images/MSR-VTT-videoTestVideo_video7070-shot1_0/img30.jpg,Images/MSR-VTT-videoTestVideo_video7070-shot1_0/img32.jpg,352,8,0,2022-06-15_08h07.36.876,annotation,2021.2.3,Win32,60.0024001,,
,,,,,,,,,,,,,,,,,0.315104167,0.09765625,1,0,0,image_3,0,29,29,53,1,1143,A person holding a bowl of food on top of a table.,M,0,9,video-storytelling-videocamping_EytINruY3-U-shot44_0,Images/video-storytelling-videocamping_EytINruY3-U-shot44_0/img0.jpg,Images/video-storytelling-videocamping_EytINruY3-U-shot44_0/img9.jpg,Images/video-storytelling-videocamping_EytINruY3-U-shot44_0/img15.jpg,Images/video-storytelling-videocamping_EytINruY3-U-shot44_0/img29.jpg,Images/video-storytelling-videocamping_EytINruY3-U-shot44_0/img53.jpg,Images/video-storytelling-videocamping_EytINruY3-U-shot44_0/img55.jpg,Images/video-storytelling-videocamping_EytINruY3-U-shot44_0/img61.jpg,Images/video-storytelling-videocamping_EytINruY3-U-shot44_0/img64.jpg,Images/video-storytelling-videocamping_EytINruY3-U-shot44_0/img67.jpg,Images/video-storytelling-videocamping_EytINruY3-U-shot44_0/img71.jpg,1896,8,0,2022-06-15_08h07.36.876,annotation,2021.2.3,Win32,60.0024001,,
,,,,,,,,,,,,,,,,,-0.248697917,-0.110677083,1,0,0,image_6,0,30,30,13,1,768,There is a boy with a green shirt on the far right side of the image and you can see most of his body except for his left hand.  There is a woman with a blue swimsuit walking in from the left and she has her left hand on her right shoulder. ,H,0,5,MSR-VTT-videoTestVideo_video7599-shot1_0,Images/MSR-VTT-videoTestVideo_video7599-shot1_0/img0.jpg,Images/MSR-VTT-videoTestVideo_video7599-shot1_0/img4.jpg,Images/MSR-VTT-videoTestVideo_video7599-shot1_0/img26.jpg,Images/MSR-VTT-videoTestVideo_video7599-shot1_0/img47.jpg,Images/MSR-VTT-videoTestVideo_video7599-shot1_0/img136.jpg,Images/MSR-VTT-videoTestVideo_video7599-shot1_0/img208.jpg,Images/MSR-VTT-videoTestVideo_video7599-shot1_0/img250.jpg,Images/MSR-VTT-videoTestVideo_video7599-shot1_0/img277.jpg,Images/MSR-VTT-videoTestVideo_video7599-shot1_0/img291.jpg,Images/MSR-VTT-videoTestVideo_video7599-shot1_0/img301.jpg,1142,8,0,2022-06-15_08h07.36.876,annotation,2021.2.3,Win32,60.0024001,,
,,,,,,,,,,,,,,,,,-0.4296875,-0.087239583,1,0,0,image_5,0,31,31,59,1,1,The only picture of a hawk.  It is looking to the left.  You see lots of branches and darker blue sky. ,H,,5,open-images-958_686caac9c5b322e7,Checks/check2/open-images-2603_1b5152f01f0093e7img3.jpg,Checks/check2/open-images-1836_069810916ce5d675img8.jpg,Checks/check2/open-images-974_0748fdedc4bf8b7bimg2.jpg,Checks/check2/open-images-617_01fb725fb1aa7b04img6.jpg,Checks/check2/open-images-507_047769e1f977cd97img2.jpg,Checks/check2/open-images-958_686caac9c5b322e7img5.jpg,Checks/check2/open-images-1278_21851d9bf5dc05c9img7.jpg,Checks/check2/open-images-2424_05f04546e01499f2img0.jpg,Checks/check2/open-images-1529_1442b11a10a6aeadimg3.jpg,Checks/check2/open-images-514_2c523ddedc2561d4img1.jpg,,,1,2022-06-15_08h07.36.876,annotation,2021.2.3,Win32,60.0024001,,
,,,,,,,,,,,,,,,,,0.510416667,-0.1875,1,0,0,image_9,0,32,32,15,1,1392,Two men standing in front of a refrigerator.,M,0,7,MSR-VTT-videoTestVideo_video9229-shot0_0,Images/MSR-VTT-videoTestVideo_video9229-shot0_0/img0.jpg,Images/MSR-VTT-videoTestVideo_video9229-shot0_0/img9.jpg,Images/MSR-VTT-videoTestVideo_video9229-shot0_0/img11.jpg,Images/MSR-VTT-videoTestVideo_video9229-shot0_0/img13.jpg,Images/MSR-VTT-videoTestVideo_video9229-shot0_0/img16.jpg,Images/MSR-VTT-videoTestVideo_video9229-shot0_0/img18.jpg,Images/MSR-VTT-videoTestVideo_video9229-shot0_0/img21.jpg,Images/MSR-VTT-videoTestVideo_video9229-shot0_0/img45.jpg,Images/MSR-VTT-videoTestVideo_video9229-shot0_0/img87.jpg,Images/MSR-VTT-videoTestVideo_video9229-shot0_0/img105.jpg,573,8,0,2022-06-15_08h07.36.876,annotation,2021.2.3,Win32,60.0024001,,
,,,,,,,,,,,,,,,,,-0.485677083,0.154947917,1,0,0,image_0,0,33,33,30,1,746,The tip of the right shoe is fully visible with a small bit of space between the tip and the top of the picture. ,H,0,3,MSR-VTT-videoTestVideo_video7523-shot2_0,Images/MSR-VTT-videoTestVideo_video7523-shot2_0/img0.jpg,Images/MSR-VTT-videoTestVideo_video7523-shot2_0/img6.jpg,Images/MSR-VTT-videoTestVideo_video7523-shot2_0/img16.jpg,Images/MSR-VTT-videoTestVideo_video7523-shot2_0/img25.jpg,Images/MSR-VTT-videoTestVideo_video7523-shot2_0/img34.jpg,Images/MSR-VTT-videoTestVideo_video7523-shot2_0/img38.jpg,Images/MSR-VTT-videoTestVideo_video7523-shot2_0/img53.jpg,Images/MSR-VTT-videoTestVideo_video7523-shot2_0/img64.jpg,Images/MSR-VTT-videoTestVideo_video7523-shot2_0/img67.jpg,Images/MSR-VTT-videoTestVideo_video7523-shot2_0/img81.jpg,1758,8,0,2022-06-15_08h07.36.876,annotation,2021.2.3,Win32,60.0024001,,
,,,,,,,,,,,,,,,,,-0.516927083,-0.134114583,1,0,0,image_5,0,34,34,31,1,1803,A woman standing in front of a dresser in a room.,M,0,8,MSR-VTT-videoTestVideo_video7265-shot1_2,Images/MSR-VTT-videoTestVideo_video7265-shot1_2/img153.jpg,Images/MSR-VTT-videoTestVideo_video7265-shot1_2/img157.jpg,Images/MSR-VTT-videoTestVideo_video7265-shot1_2/img159.jpg,Images/MSR-VTT-videoTestVideo_video7265-shot1_2/img166.jpg,Images/MSR-VTT-videoTestVideo_video7265-shot1_2/img171.jpg,Images/MSR-VTT-videoTestVideo_video7265-shot1_2/img184.jpg,Images/MSR-VTT-videoTestVideo_video7265-shot1_2/img192.jpg,Images/MSR-VTT-videoTestVideo_video7265-shot1_2/img198.jpg,Images/MSR-VTT-videoTestVideo_video7265-shot1_2/img202.jpg,Images/MSR-VTT-videoTestVideo_video7265-shot1_2/img209.jpg,1408,8,0,2022-06-15_08h07.36.876,annotation,2021.2.3,Win32,60.0024001,,
,,,,,,,,,,,,,,,,,-0.48046875,0.115885417,1,0,0,image_0,0,35,35,0,1,2038,A young boy holding a video game controller in his hand.,M,1,6,video-storytelling-videochristmas_5RR_sRzKODA-shot23_5,Images/video-storytelling-videochristmas_5RR_sRzKODA-shot23_5/img226.jpg,Images/video-storytelling-videochristmas_5RR_sRzKODA-shot23_5/img236.jpg,Images/video-storytelling-videochristmas_5RR_sRzKODA-shot23_5/img243.jpg,Images/video-storytelling-videochristmas_5RR_sRzKODA-shot23_5/img254.jpg,Images/video-storytelling-videochristmas_5RR_sRzKODA-shot23_5/img256.jpg,Images/video-storytelling-videochristmas_5RR_sRzKODA-shot23_5/img261.jpg,Images/video-storytelling-videochristmas_5RR_sRzKODA-shot23_5/img263.jpg,Images/video-storytelling-videochristmas_5RR_sRzKODA-shot23_5/img264.jpg,Images/video-storytelling-videochristmas_5RR_sRzKODA-shot23_5/img266.jpg,Images/video-storytelling-videochristmas_5RR_sRzKODA-shot23_5/img267.jpg,1107,8,0,2022-06-15_08h07.36.876,annotation,2021.2.3,Win32,60.0024001,,
,,,,,,,,,,,,,,,,,-0.037760417,-0.1015625,1,0,0,image_7,0,36,36,11,1,428,You can't see any of the person's face who has a blue shirt on.  Her elbow is blocking a bit of the person's head behind her but you can clearly see her face. ,H,0,5,video-storytelling-videocamping_1OzbiB1TIWI-shot14_6,Images/video-storytelling-videocamping_1OzbiB1TIWI-shot14_6/img922.jpg,Images/video-storytelling-videocamping_1OzbiB1TIWI-shot14_6/img930.jpg,Images/video-storytelling-videocamping_1OzbiB1TIWI-shot14_6/img932.jpg,Images/video-storytelling-videocamping_1OzbiB1TIWI-shot14_6/img943.jpg,Images/video-storytelling-videocamping_1OzbiB1TIWI-shot14_6/img949.jpg,Images/video-storytelling-videocamping_1OzbiB1TIWI-shot14_6/img955.jpg,Images/video-storytelling-videocamping_1OzbiB1TIWI-shot14_6/img958.jpg,Images/video-storytelling-videocamping_1OzbiB1TIWI-shot14_6/img967.jpg,Images/video-storytelling-videocamping_1OzbiB1TIWI-shot14_6/img969.jpg,Images/video-storytelling-videocamping_1OzbiB1TIWI-shot14_6/img973.jpg,732,8,0,2022-06-15_08h07.36.876,annotation,2021.2.3,Win32,60.0024001,,
,,,,,,,,,,,,,,,,,-0.48046875,0.130208333,1,0,0,image_0,0,37,37,45,1,713,The man has a white thing on his head.  You can only see the right side of his face because the other half is blocked by a woman. ,H,0,8,MSR-VTT-videoTestVideo_video8166-shot1_1,Images/MSR-VTT-videoTestVideo_video8166-shot1_1/img10.jpg,Images/MSR-VTT-videoTestVideo_video8166-shot1_1/img11.jpg,Images/MSR-VTT-videoTestVideo_video8166-shot1_1/img14.jpg,Images/MSR-VTT-videoTestVideo_video8166-shot1_1/img15.jpg,Images/MSR-VTT-videoTestVideo_video8166-shot1_1/img16.jpg,Images/MSR-VTT-videoTestVideo_video8166-shot1_1/img17.jpg,Images/MSR-VTT-videoTestVideo_video8166-shot1_1/img20.jpg,Images/MSR-VTT-videoTestVideo_video8166-shot1_1/img22.jpg,Images/MSR-VTT-videoTestVideo_video8166-shot1_1/img23.jpg,Images/MSR-VTT-videoTestVideo_video8166-shot1_1/img24.jpg,399,8,0,2022-06-15_08h07.36.876,annotation,2021.2.3,Win32,60.0024001,,
,,,,,,,,,,,,,,,,,0.016927083,0.157552083,1,0,0,image_2,0,38,38,61,1,3,A grey elephant with golden leaves on it. ,H,,2,open-images-1745_0ed62fe71809b2f5,Checks/check4/open-images-2609_3f72daeb23764ecfimg6.jpg,Checks/check4/open-images-1928_60679e2899870e08img1.jpg,Checks/check4/open-images-1745_0ed62fe71809b2f5img2.jpg,Checks/check4/open-images-1811_9ae6351c7f7565edimg0.jpg,Checks/check4/open-images-1721_6f04da11945ea492img3.jpg,Checks/check4/open-images-1907_5f9be3e4ea5e22c7img2.jpg,Checks/check4/open-images-580_0ddffb9c25141999img1.jpg,Checks/check4/open-images-2924_0645dcbcf998fed9img3.jpg,Checks/check4/open-images-869_856ecbcb5faf76e3img8.jpg,Checks/check4/open-images-250_02039517e63a91fbimg1.jpg,,,1,2022-06-15_08h07.36.876,annotation,2021.2.3,Win32,60.0024001,,
,,,,,,,,,,,,,,,,,0.4609375,-0.19140625,1,0,0,image_9,0,39,39,42,1,66,You can fully see the orange balloon on the table.  The girl's right foot is getting close to coming down to the ground. ,H,0,9,MSR-VTT-videoTestVideo_video7428-shot2_1,Images/MSR-VTT-videoTestVideo_video7428-shot2_1/img31.jpg,Images/MSR-VTT-videoTestVideo_video7428-shot2_1/img35.jpg,Images/MSR-VTT-videoTestVideo_video7428-shot2_1/img41.jpg,Images/MSR-VTT-videoTestVideo_video7428-shot2_1/img45.jpg,Images/MSR-VTT-videoTestVideo_video7428-shot2_1/img50.jpg,Images/MSR-VTT-videoTestVideo_video7428-shot2_1/img53.jpg,Images/MSR-VTT-videoTestVideo_video7428-shot2_1/img56.jpg,Images/MSR-VTT-videoTestVideo_video7428-shot2_1/img60.jpg,Images/MSR-VTT-videoTestVideo_video7428-shot2_1/img65.jpg,Images/MSR-VTT-videoTestVideo_video7428-shot2_1/img66.jpg,1552,8,0,2022-06-15_08h07.36.876,annotation,2021.2.3,Win32,60.0024001,,
,,,,,,,,,,,,,,,,,-0.00390625,0.212239583,1,0,0,image_2,0,40,40,23,1,1347,A blue container with a toothbrush sitting on top of it.,M,0,5,MSR-VTT-videoTestVideo_video8883-shot1_0,Images/MSR-VTT-videoTestVideo_video8883-shot1_0/img0.jpg,Images/MSR-VTT-videoTestVideo_video8883-shot1_0/img14.jpg,Images/MSR-VTT-videoTestVideo_video8883-shot1_0/img16.jpg,Images/MSR-VTT-videoTestVideo_video8883-shot1_0/img19.jpg,Images/MSR-VTT-videoTestVideo_video8883-shot1_0/img22.jpg,Images/MSR-VTT-videoTestVideo_video8883-shot1_0/img49.jpg,Images/MSR-VTT-videoTestVideo_video8883-shot1_0/img177.jpg,Images/MSR-VTT-videoTestVideo_video8883-shot1_0/img197.jpg,Images/MSR-VTT-videoTestVideo_video8883-shot1_0/img213.jpg,Images/MSR-VTT-videoTestVideo_video8883-shot1_0/img250.jpg,751,8,0,2022-06-15_08h07.36.876,annotation,2021.2.3,Win32,60.0024001,,
,,,,,,,,,,,,,,,,,-0.4453125,0.13671875,1,0,0,image_0,0,41,41,1,1,1592,A basketball court with basketball players on it.,M,0,3,MSR-VTT-videoTestVideo_video9898-shot1_0,Images/MSR-VTT-videoTestVideo_video9898-shot1_0/img0.jpg,Images/MSR-VTT-videoTestVideo_video9898-shot1_0/img6.jpg,Images/MSR-VTT-videoTestVideo_video9898-shot1_0/img8.jpg,Images/MSR-VTT-videoTestVideo_video9898-shot1_0/img10.jpg,Images/MSR-VTT-videoTestVideo_video9898-shot1_0/img13.jpg,Images/MSR-VTT-videoTestVideo_video9898-shot1_0/img18.jpg,Images/MSR-VTT-videoTestVideo_video9898-shot1_0/img30.jpg,Images/MSR-VTT-videoTestVideo_video9898-shot1_0/img49.jpg,Images/MSR-VTT-videoTestVideo_video9898-shot1_0/img72.jpg,Images/MSR-VTT-videoTestVideo_video9898-shot1_0/img154.jpg,1991,8,0,2022-06-15_08h07.36.876,annotation,2021.2.3,Win32,60.0024001,,
,,,,,,,,,,,,,,,,,-0.458333333,0.17578125,1,0,0,image_0,0,42,42,52,1,1462,A woman standing in front of a park with a pony.,M,1,8,video-storytelling-videocamping_1OzbiB1TIWI-shot12_0,Images/video-storytelling-videocamping_1OzbiB1TIWI-shot12_0/img0.jpg,Images/video-storytelling-videocamping_1OzbiB1TIWI-shot12_0/img6.jpg,Images/video-storytelling-videocamping_1OzbiB1TIWI-shot12_0/img10.jpg,Images/video-storytelling-videocamping_1OzbiB1TIWI-shot12_0/img18.jpg,Images/video-storytelling-videocamping_1OzbiB1TIWI-shot12_0/img34.jpg,Images/video-storytelling-videocamping_1OzbiB1TIWI-shot12_0/img39.jpg,Images/video-storytelling-videocamping_1OzbiB1TIWI-shot12_0/img54.jpg,Images/video-storytelling-videocamping_1OzbiB1TIWI-shot12_0/img64.jpg,Images/video-storytelling-videocamping_1OzbiB1TIWI-shot12_0/img68.jpg,Images/video-storytelling-videocamping_1OzbiB1TIWI-shot12_0/img72.jpg,379,8,0,2022-06-15_08h07.36.876,annotation,2021.2.3,Win32,60.0024001,,
,,,,,,,,,,,,,,,,,-0.484375,-0.217447917,1,0,0,image_5,0,43,43,51,1,1947,A close up of a musician playing a guitar.,M,0,7,MSR-VTT-videoTestVideo_video9947-shot2_0,Images/MSR-VTT-videoTestVideo_video9947-shot2_0/img0.jpg,Images/MSR-VTT-videoTestVideo_video9947-shot2_0/img11.jpg,Images/MSR-VTT-videoTestVideo_video9947-shot2_0/img22.jpg,Images/MSR-VTT-videoTestVideo_video9947-shot2_0/img55.jpg,Images/MSR-VTT-videoTestVideo_video9947-shot2_0/img78.jpg,Images/MSR-VTT-videoTestVideo_video9947-shot2_0/img87.jpg,Images/MSR-VTT-videoTestVideo_video9947-shot2_0/img98.jpg,Images/MSR-VTT-videoTestVideo_video9947-shot2_0/img123.jpg,Images/MSR-VTT-videoTestVideo_video9947-shot2_0/img125.jpg,Images/MSR-VTT-videoTestVideo_video9947-shot2_0/img148.jpg,281,8,0,2022-06-15_08h07.36.876,annotation,2021.2.3,Win32,60.0024001,,
,,,,,,,,,,,,,,,,,0.02734375,0.1796875,1,0,0,image_2,0,44,44,2,1,461,"The woman closest to the camera is looking at it. She is blocking the head of a woman with a white tank top standing behind her, though you can still see the woman's blue baseball cap.. ",H,0,2,video-storytelling-videocamping_1OzbiB1TIWI-shot40_4,Images/video-storytelling-videocamping_1OzbiB1TIWI-shot40_4/img228.jpg,Images/video-storytelling-videocamping_1OzbiB1TIWI-shot40_4/img229.jpg,Images/video-storytelling-videocamping_1OzbiB1TIWI-shot40_4/img231.jpg,Images/video-storytelling-videocamping_1OzbiB1TIWI-shot40_4/img233.jpg,Images/video-storytelling-videocamping_1OzbiB1TIWI-shot40_4/img234.jpg,Images/video-storytelling-videocamping_1OzbiB1TIWI-shot40_4/img235.jpg,Images/video-storytelling-videocamping_1OzbiB1TIWI-shot40_4/img236.jpg,Images/video-storytelling-videocamping_1OzbiB1TIWI-shot40_4/img237.jpg,Images/video-storytelling-videocamping_1OzbiB1TIWI-shot40_4/img239.jpg,Images/video-storytelling-videocamping_1OzbiB1TIWI-shot40_4/img242.jpg,1121,8,0,2022-06-15_08h07.36.876,annotation,2021.2.3,Win32,60.0024001,,
,,,,,,,,,,,,,,,,,-0.471354167,-0.143229167,1,0,0,image_5,0,45,45,17,1,113,The person's hair on the right is covering most of her eyes.  One single bunch is mostly covering both eyes,H,0,5,MSR-VTT-videoTestVideo_video8952-shot1_1,Images/MSR-VTT-videoTestVideo_video8952-shot1_1/img104.jpg,Images/MSR-VTT-videoTestVideo_video8952-shot1_1/img107.jpg,Images/MSR-VTT-videoTestVideo_video8952-shot1_1/img112.jpg,Images/MSR-VTT-videoTestVideo_video8952-shot1_1/img115.jpg,Images/MSR-VTT-videoTestVideo_video8952-shot1_1/img117.jpg,Images/MSR-VTT-videoTestVideo_video8952-shot1_1/img119.jpg,Images/MSR-VTT-videoTestVideo_video8952-shot1_1/img122.jpg,Images/MSR-VTT-videoTestVideo_video8952-shot1_1/img127.jpg,Images/MSR-VTT-videoTestVideo_video8952-shot1_1/img129.jpg,Images/MSR-VTT-videoTestVideo_video8952-shot1_1/img130.jpg,1101,8,0,2022-06-15_08h07.36.876,annotation,2021.2.3,Win32,60.0024001,,
,,,,,,,,,,,,,,,,,0.470052083,0.119791667,1,0,0,image_4,0,46,46,12,1,1403,A man standing in a park holding a frisbee.,M,0,9,video-storytelling-videocamping_dBXYM3dQTSo-shot39_2,Images/video-storytelling-videocamping_dBXYM3dQTSo-shot39_2/img87.jpg,Images/video-storytelling-videocamping_dBXYM3dQTSo-shot39_2/img89.jpg,Images/video-storytelling-videocamping_dBXYM3dQTSo-shot39_2/img92.jpg,Images/video-storytelling-videocamping_dBXYM3dQTSo-shot39_2/img99.jpg,Images/video-storytelling-videocamping_dBXYM3dQTSo-shot39_2/img101.jpg,Images/video-storytelling-videocamping_dBXYM3dQTSo-shot39_2/img106.jpg,Images/video-storytelling-videocamping_dBXYM3dQTSo-shot39_2/img115.jpg,Images/video-storytelling-videocamping_dBXYM3dQTSo-shot39_2/img134.jpg,Images/video-storytelling-videocamping_dBXYM3dQTSo-shot39_2/img150.jpg,Images/video-storytelling-videocamping_dBXYM3dQTSo-shot39_2/img166.jpg,1220,8,0,2022-06-15_08h07.36.876,annotation,2021.2.3,Win32,60.0024001,,
,,,,,,,,,,,,,,,,,-0.467447917,-0.200520833,1,0,0,image_5,0,47,47,22,1,1728,A man standing in front of a camera lens.,M,0,6,MSR-VTT-videoTestVideo_video9968-shot1_0,Images/MSR-VTT-videoTestVideo_video9968-shot1_0/img0.jpg,Images/MSR-VTT-videoTestVideo_video9968-shot1_0/img4.jpg,Images/MSR-VTT-videoTestVideo_video9968-shot1_0/img8.jpg,Images/MSR-VTT-videoTestVideo_video9968-shot1_0/img13.jpg,Images/MSR-VTT-videoTestVideo_video9968-shot1_0/img17.jpg,Images/MSR-VTT-videoTestVideo_video9968-shot1_0/img22.jpg,Images/MSR-VTT-videoTestVideo_video9968-shot1_0/img52.jpg,Images/MSR-VTT-videoTestVideo_video9968-shot1_0/img129.jpg,Images/MSR-VTT-videoTestVideo_video9968-shot1_0/img133.jpg,Images/MSR-VTT-videoTestVideo_video9968-shot1_0/img137.jpg,146,8,0,2022-06-15_08h07.36.876,annotation,2021.2.3,Win32,60.0024001,,
,,,,,,,,,,,,,,,,,0.01953125,0.096354167,1,0,0,image_2,0,48,48,58,1,0,Pair of black gloves,H,,2,open-images-510_3a241cb30d6e5319,Checks/check1/open-images-225_1442c0d0ef23d58bimg3.jpg,Checks/check1/open-images-2759_3a42708fe77398b7img8.jpg,Checks/check1/open-images-510_3a241cb30d6e5319img2.jpg,Checks/check1/open-images-2209_02c98146fb93ff17img1.jpg,Checks/check1/open-images-1553_0f128317e56a9d2fimg9.jpg,Checks/check1/open-images-2666_044d7c6d11e6b493img8.jpg,Checks/check1/open-images-2880_159294646083f545img4.jpg,Checks/check1/open-images-609_2dc0baa993a2bd25img5.jpg,Checks/check1/open-images-1854_2b15616b4f1080e7img2.jpg,Checks/check1/open-images-1435_1b0ce31951048765img8.jpg,,,1,2022-06-15_08h07.36.876,annotation,2021.2.3,Win32,60.0024001,,
,,,,,,,,,,,,,,,,,0.490885417,-0.140625,1,0,0,image_9,0,49,49,36,1,2033,Two women standing next to each other in a kitchen.,M,0,4,MSR-VTT-videoTestVideo_video8345-shot1_1,Images/MSR-VTT-videoTestVideo_video8345-shot1_1/img50.jpg,Images/MSR-VTT-videoTestVideo_video8345-shot1_1/img52.jpg,Images/MSR-VTT-videoTestVideo_video8345-shot1_1/img63.jpg,Images/MSR-VTT-videoTestVideo_video8345-shot1_1/img72.jpg,Images/MSR-VTT-videoTestVideo_video8345-shot1_1/img79.jpg,Images/MSR-VTT-videoTestVideo_video8345-shot1_1/img87.jpg,Images/MSR-VTT-videoTestVideo_video8345-shot1_1/img99.jpg,Images/MSR-VTT-videoTestVideo_video8345-shot1_1/img132.jpg,Images/MSR-VTT-videoTestVideo_video8345-shot1_1/img141.jpg,Images/MSR-VTT-videoTestVideo_video8345-shot1_1/img147.jpg,1425,8,0,2022-06-15_08h07.36.876,annotation,2021.2.3,Win32,60.0024001,,
,,,,,,,,,,,,,,,,,0.243489583,-0.17578125,1,0,0,image_8,0,50,50,34,1,1743,A group of men sitting next to each other.,M,1,7,MSR-VTT-videoTestVideo_video9745-shot1_2,Images/MSR-VTT-videoTestVideo_video9745-shot1_2/img180.jpg,Images/MSR-VTT-videoTestVideo_video9745-shot1_2/img188.jpg,Images/MSR-VTT-videoTestVideo_video9745-shot1_2/img194.jpg,Images/MSR-VTT-videoTestVideo_video9745-shot1_2/img200.jpg,Images/MSR-VTT-videoTestVideo_video9745-shot1_2/img207.jpg,Images/MSR-VTT-videoTestVideo_video9745-shot1_2/img212.jpg,Images/MSR-VTT-videoTestVideo_video9745-shot1_2/img219.jpg,Images/MSR-VTT-videoTestVideo_video9745-shot1_2/img230.jpg,Images/MSR-VTT-videoTestVideo_video9745-shot1_2/img237.jpg,Images/MSR-VTT-videoTestVideo_video9745-shot1_2/img241.jpg,1415,8,0,2022-06-15_08h07.36.876,annotation,2021.2.3,Win32,60.0024001,,
,,,,,,,,,,,,,,,,,-0.44921875,0.14453125,1,0,0,image_0,0,51,51,43,1,396,The right profile of the women's dace is shown with her eyes open.,H,0,8,video-storytelling-videocamping_dBXYM3dQTSo-shot10_1,Images/video-storytelling-videocamping_dBXYM3dQTSo-shot10_1/img267.jpg,Images/video-storytelling-videocamping_dBXYM3dQTSo-shot10_1/img278.jpg,Images/video-storytelling-videocamping_dBXYM3dQTSo-shot10_1/img281.jpg,Images/video-storytelling-videocamping_dBXYM3dQTSo-shot10_1/img287.jpg,Images/video-storytelling-videocamping_dBXYM3dQTSo-shot10_1/img294.jpg,Images/video-storytelling-videocamping_dBXYM3dQTSo-shot10_1/img323.jpg,Images/video-storytelling-videocamping_dBXYM3dQTSo-shot10_1/img335.jpg,Images/video-storytelling-videocamping_dBXYM3dQTSo-shot10_1/img350.jpg,Images/video-storytelling-videocamping_dBXYM3dQTSo-shot10_1/img354.jpg,Images/video-storytelling-videocamping_dBXYM3dQTSo-shot10_1/img362.jpg,1622,8,0,2022-06-15_08h07.36.876,annotation,2021.2.3,Win32,60.0024001,,
,,,,,,,,,,,,,,,,,0.473958333,-0.140625,1,0,0,image_9,0,52,52,39,1,1678,A woman sitting on top of a chair with a black hairline.,M,0,1,MSR-VTT-videoTestVideo_video9211-shot1_0,Images/MSR-VTT-videoTestVideo_video9211-shot1_0/img0.jpg,Images/MSR-VTT-videoTestVideo_video9211-shot1_0/img2.jpg,Images/MSR-VTT-videoTestVideo_video9211-shot1_0/img6.jpg,Images/MSR-VTT-videoTestVideo_video9211-shot1_0/img9.jpg,Images/MSR-VTT-videoTestVideo_video9211-shot1_0/img14.jpg,Images/MSR-VTT-videoTestVideo_video9211-shot1_0/img17.jpg,Images/MSR-VTT-videoTestVideo_video9211-shot1_0/img22.jpg,Images/MSR-VTT-videoTestVideo_video9211-shot1_0/img28.jpg,Images/MSR-VTT-videoTestVideo_video9211-shot1_0/img32.jpg,Images/MSR-VTT-videoTestVideo_video9211-shot1_0/img38.jpg,1056,8,0,2022-06-15_08h07.36.876,annotation,2021.2.3,Win32,60.0024001,,
,,,,,,,,,,,,,,,,,-0.50390625,-0.169270833,1,0,0,image_5,0,53,53,7,1,404,his finger is over the owls face and the owls face is blurry,H,0,8,MSR-VTT-videoTestVideo_video9389-shot1_0,Images/MSR-VTT-videoTestVideo_video9389-shot1_0/img0.jpg,Images/MSR-VTT-videoTestVideo_video9389-shot1_0/img52.jpg,Images/MSR-VTT-videoTestVideo_video9389-shot1_0/img102.jpg,Images/MSR-VTT-videoTestVideo_video9389-shot1_0/img108.jpg,Images/MSR-VTT-videoTestVideo_video9389-shot1_0/img129.jpg,Images/MSR-VTT-videoTestVideo_video9389-shot1_0/img151.jpg,Images/MSR-VTT-videoTestVideo_video9389-shot1_0/img154.jpg,Images/MSR-VTT-videoTestVideo_video9389-shot1_0/img160.jpg,Images/MSR-VTT-videoTestVideo_video9389-shot1_0/img169.jpg,Images/MSR-VTT-videoTestVideo_video9389-shot1_0/img173.jpg,446,8,0,2022-06-15_08h07.36.876,annotation,2021.2.3,Win32,60.0024001,,
,,,,,,,,,,,,,,,,,-0.321614583,-0.165364583,1,0,0,image_6,0,54,54,5,1,899,"The person in red shorts is on the left side of the picture, there is a small gap between him and the other guy but he is fully in the frame.",H,0,6,MSR-VTT-videoTestVideo_video8842-shot1_0,Images/MSR-VTT-videoTestVideo_video8842-shot1_0/img0.jpg,Images/MSR-VTT-videoTestVideo_video8842-shot1_0/img3.jpg,Images/MSR-VTT-videoTestVideo_video8842-shot1_0/img5.jpg,Images/MSR-VTT-videoTestVideo_video8842-shot1_0/img9.jpg,Images/MSR-VTT-videoTestVideo_video8842-shot1_0/img17.jpg,Images/MSR-VTT-videoTestVideo_video8842-shot1_0/img22.jpg,Images/MSR-VTT-videoTestVideo_video8842-shot1_0/img29.jpg,Images/MSR-VTT-videoTestVideo_video8842-shot1_0/img35.jpg,Images/MSR-VTT-videoTestVideo_video8842-shot1_0/img37.jpg,Images/MSR-VTT-videoTestVideo_video8842-shot1_0/img42.jpg,440,8,0,2022-06-15_08h07.36.876,annotation,2021.2.3,Win32,60.0024001,,
,,,,,,,,,,,,,,,,,-0.240885417,0.138020833,1,0,0,image_1,0,55,55,57,1,1765,A man holding a cell phone in his hands.,M,0,7,MSR-VTT-videoTestVideo_video9608-shot8_0,Images/MSR-VTT-videoTestVideo_video9608-shot8_0/img0.jpg,Images/MSR-VTT-videoTestVideo_video9608-shot8_0/img10.jpg,Images/MSR-VTT-videoTestVideo_video9608-shot8_0/img24.jpg,Images/MSR-VTT-videoTestVideo_video9608-shot8_0/img28.jpg,Images/MSR-VTT-videoTestVideo_video9608-shot8_0/img34.jpg,Images/MSR-VTT-videoTestVideo_video9608-shot8_0/img39.jpg,Images/MSR-VTT-videoTestVideo_video9608-shot8_0/img46.jpg,Images/MSR-VTT-videoTestVideo_video9608-shot8_0/img51.jpg,Images/MSR-VTT-videoTestVideo_video9608-shot8_0/img74.jpg,Images/MSR-VTT-videoTestVideo_video9608-shot8_0/img83.jpg,1690,8,0,2022-06-15_08h07.36.876,annotation,2021.2.3,Win32,60.0024001,,
,,,,,,,,,,,,,,,,,-0.200520833,0.13671875,1,0,0,image_1,0,56,56,28,1,1937,A woman holding a cell phone in her hands.,M,1,4,MSR-VTT-videoTestVideo_video9566-shot0_1,Images/MSR-VTT-videoTestVideo_video9566-shot0_1/img114.jpg,Images/MSR-VTT-videoTestVideo_video9566-shot0_1/img124.jpg,Images/MSR-VTT-videoTestVideo_video9566-shot0_1/img127.jpg,Images/MSR-VTT-videoTestVideo_video9566-shot0_1/img159.jpg,Images/MSR-VTT-videoTestVideo_video9566-shot0_1/img166.jpg,Images/MSR-VTT-videoTestVideo_video9566-shot0_1/img173.jpg,Images/MSR-VTT-videoTestVideo_video9566-shot0_1/img175.jpg,Images/MSR-VTT-videoTestVideo_video9566-shot0_1/img187.jpg,Images/MSR-VTT-videoTestVideo_video9566-shot0_1/img193.jpg,Images/MSR-VTT-videoTestVideo_video9566-shot0_1/img220.jpg,344,8,0,2022-06-15_08h07.36.876,annotation,2021.2.3,Win32,60.0024001,,
,,,,,,,,,,,,,,,,,0.559895833,-0.149739583,1,0,0,image_9,0,57,57,44,1,204,There is no white text at the bottom of the image.  There is a tiny bit of black seen in the far upper left corner of the image where there is no plate. ,H,0,6,MSR-VTT-videoTestVideo_video9409-shot1_0,Images/MSR-VTT-videoTestVideo_video9409-shot1_0/img0.jpg,Images/MSR-VTT-videoTestVideo_video9409-shot1_0/img5.jpg,Images/MSR-VTT-videoTestVideo_video9409-shot1_0/img15.jpg,Images/MSR-VTT-videoTestVideo_video9409-shot1_0/img26.jpg,Images/MSR-VTT-videoTestVideo_video9409-shot1_0/img42.jpg,Images/MSR-VTT-videoTestVideo_video9409-shot1_0/img64.jpg,Images/MSR-VTT-videoTestVideo_video9409-shot1_0/img97.jpg,Images/MSR-VTT-videoTestVideo_video9409-shot1_0/img112.jpg,Images/MSR-VTT-videoTestVideo_video9409-shot1_0/img128.jpg,Images/MSR-VTT-videoTestVideo_video9409-shot1_0/img206.jpg,407,8,0,2022-06-15_08h07.36.876,annotation,2021.2.3,Win32,60.0024001,,
,,,,,,,,,,,,,,,,,0.5703125,-0.154947917,1,0,0,image_9,0,58,58,60,1,2,Green type writer with a red tape. ,H,,9,open-images-531_0dd4eb59d465a8be,Checks/check3/open-images-503_1ccd6fa641154ebbimg7.jpg,Checks/check3/open-images-1852_00faf52058ad28b8img4.jpg,Checks/check3/open-images-386_1b2e28d6d994603eimg1.jpg,Checks/check3/open-images-471_1121e9f97c200ac0img8.jpg,Checks/check3/open-images-1886_3db71eaddb618934img8.jpg,Checks/check3/open-images-1696_20a4ebf0c0f76b05img6.jpg,Checks/check3/open-images-2447_128483a48e1552f4img6.jpg,Checks/check3/open-images-2994_9965cbf8aa20bda0img2.jpg,Checks/check3/open-images-1068_03d63613107970b3img6.jpg,Checks/check3/open-images-531_0dd4eb59d465a8beimg9.jpg,,,1,2022-06-15_08h07.36.876,annotation,2021.2.3,Win32,60.0024001,,
,,,,,,,,,,,,,,,,,0.466145833,0.127604167,1,0,0,image_4,0,59,59,27,1,183,"A very blurry scene. There's a person's blue sleeve and part of the arm on the right, what appears to be a black chair with an idem in it, and possibly a white baseball cap in the left corner.",H,0,9,video-storytelling-videocamping_1OzbiB1TIWI-shot11_7,Images/video-storytelling-videocamping_1OzbiB1TIWI-shot11_7/img377.jpg,Images/video-storytelling-videocamping_1OzbiB1TIWI-shot11_7/img384.jpg,Images/video-storytelling-videocamping_1OzbiB1TIWI-shot11_7/img385.jpg,Images/video-storytelling-videocamping_1OzbiB1TIWI-shot11_7/img387.jpg,Images/video-storytelling-videocamping_1OzbiB1TIWI-shot11_7/img389.jpg,Images/video-storytelling-videocamping_1OzbiB1TIWI-shot11_7/img391.jpg,Images/video-storytelling-videocamping_1OzbiB1TIWI-shot11_7/img392.jpg,Images/video-storytelling-videocamping_1OzbiB1TIWI-shot11_7/img393.jpg,Images/video-storytelling-videocamping_1OzbiB1TIWI-shot11_7/img396.jpg,Images/video-storytelling-videocamping_1OzbiB1TIWI-shot11_7/img398.jpg,159,8,0,2022-06-15_08h07.36.876,annotation,2021.2.3,Win32,60.0024001,,
,,,,,,,,,,,,,,,,,-0.44921875,0.130208333,1,0,0,image_0,0,60,60,26,1,257,"A woman with wide eyes has her arms up at a 45 degree angle. Her right arm is blocking her chin and part, but not all, of her mouth.",H,0,3,MSR-VTT-videoTestVideo_video8847-shot4_1,Images/MSR-VTT-videoTestVideo_video8847-shot4_1/img27.jpg,Images/MSR-VTT-videoTestVideo_video8847-shot4_1/img28.jpg,Images/MSR-VTT-videoTestVideo_video8847-shot4_1/img30.jpg,Images/MSR-VTT-videoTestVideo_video8847-shot4_1/img31.jpg,Images/MSR-VTT-videoTestVideo_video8847-shot4_1/img32.jpg,Images/MSR-VTT-videoTestVideo_video8847-shot4_1/img35.jpg,Images/MSR-VTT-videoTestVideo_video8847-shot4_1/img38.jpg,Images/MSR-VTT-videoTestVideo_video8847-shot4_1/img42.jpg,Images/MSR-VTT-videoTestVideo_video8847-shot4_1/img45.jpg,Images/MSR-VTT-videoTestVideo_video8847-shot4_1/img48.jpg,831,8,0,2022-06-15_08h07.36.876,annotation,2021.2.3,Win32,60.0024001,,
,,,,,,,,,,,,,,,,,-0.255208333,0.140625,1,0,0,image_1,0,61,61,8,1,1896,A photo of a bird perched on a bird cage.,M,0,3,MSR-VTT-videoTestVideo_video7059-shot1_1,Images/MSR-VTT-videoTestVideo_video7059-shot1_1/img413.jpg,Images/MSR-VTT-videoTestVideo_video7059-shot1_1/img426.jpg,Images/MSR-VTT-videoTestVideo_video7059-shot1_1/img440.jpg,Images/MSR-VTT-videoTestVideo_video7059-shot1_1/img449.jpg,Images/MSR-VTT-videoTestVideo_video7059-shot1_1/img467.jpg,Images/MSR-VTT-videoTestVideo_video7059-shot1_1/img487.jpg,Images/MSR-VTT-videoTestVideo_video7059-shot1_1/img496.jpg,Images/MSR-VTT-videoTestVideo_video7059-shot1_1/img500.jpg,Images/MSR-VTT-videoTestVideo_video7059-shot1_1/img525.jpg,Images/MSR-VTT-videoTestVideo_video7059-shot1_1/img540.jpg,449,8,0,2022-06-15_08h07.36.876,annotation,2021.2.3,Win32,60.0024001,,
,,,,,,,,,,,,,,,,,-0.48046875,-0.118489583,1,0,0,image_5,0,62,62,14,1,1209,A close up of a woman with a sign on her head.,M,1,8,MSR-VTT-videoTestVideo_video9196-shot1_1,Images/MSR-VTT-videoTestVideo_video9196-shot1_1/img24.jpg,Images/MSR-VTT-videoTestVideo_video9196-shot1_1/img29.jpg,Images/MSR-VTT-videoTestVideo_video9196-shot1_1/img32.jpg,Images/MSR-VTT-videoTestVideo_video9196-shot1_1/img35.jpg,Images/MSR-VTT-videoTestVideo_video9196-shot1_1/img48.jpg,Images/MSR-VTT-videoTestVideo_video9196-shot1_1/img66.jpg,Images/MSR-VTT-videoTestVideo_video9196-shot1_1/img81.jpg,Images/MSR-VTT-videoTestVideo_video9196-shot1_1/img89.jpg,Images/MSR-VTT-videoTestVideo_video9196-shot1_1/img98.jpg,Images/MSR-VTT-videoTestVideo_video9196-shot1_1/img107.jpg,430,8,0,2022-06-15_08h07.36.876,annotation,2021.2.3,Win32,60.0024001,,
,,,,,,,,,,,,,,,,,,,,,,,,,,,,,,,,,,,,,,,,,,,,,,,2022-06-15_08h07.36.876,annotation,2021.2.3,Win32,60.0024001,space,29.502
