mturk,key_resp_2.keys,key_resp_2.rt,key_resp_3.keys,key_resp_3.rt,mouse_2.x,mouse_2.y,mouse_2.leftButton,mouse_2.midButton,mouse_2.rightButton,mouse_2.clicked_name,key_resp_5.keys,key_resp_5.rt,key_resp.keys,key_resp.rt,key_resp_6.keys,key_resp_6.rt,mouse.x,mouse.y,mouse.leftButton,mouse.midButton,mouse.rightButton,mouse.clicked_name,trials.thisRepN,trials.thisTrialN,trials.thisN,trials.thisIndex,trials.ran,N,caption,class_caption,model_guessed,target_idx,image_set,img1,img2,img3,img4,img5,img6,img7,img8,img9,img10,Q_id,block,is_check,date,expName,psychopyVersion,OS,frameRate,key_resp_7.keys,key_resp_7.rt
6824554,space,5.2792,space,2.9636,0.198148148,0.046296296,1,0,0,ex4,space,3.4847,space,7.2654,space,0.9099,-0.027777778,0.071296296,1,0,0,image_2,0,0,0,51,1,214,The picture is not very blurry. There is a red curved shape at the bottom left corner. The front tire of the bicycle is not visible.,H,0,2,MSR-VTT-videoTestVideo_video9489-shot2_2,Images/MSR-VTT-videoTestVideo_video9489-shot2_2/img61.jpg,Images/MSR-VTT-videoTestVideo_video9489-shot2_2/img62.jpg,Images/MSR-VTT-videoTestVideo_video9489-shot2_2/img64.jpg,Images/MSR-VTT-videoTestVideo_video9489-shot2_2/img65.jpg,Images/MSR-VTT-videoTestVideo_video9489-shot2_2/img68.jpg,Images/MSR-VTT-videoTestVideo_video9489-shot2_2/img70.jpg,Images/MSR-VTT-videoTestVideo_video9489-shot2_2/img72.jpg,Images/MSR-VTT-videoTestVideo_video9489-shot2_2/img75.jpg,Images/MSR-VTT-videoTestVideo_video9489-shot2_2/img76.jpg,Images/MSR-VTT-videoTestVideo_video9489-shot2_2/img77.jpg,1468,30,0,2022-06-16_09h47.13.290,annotation,2021.2.3,Win32,143.9677512,,
,,,,,,,,,,,,,,,,,-0.224074074,-0.128703704,1,0,0,image_6,0,1,1,7,1,505,Two women and a man with faces visible; one woman stands behind the other woman.,H,0,6,MSR-VTT-videoTestVideo_video8166-shot1_1,Images/MSR-VTT-videoTestVideo_video8166-shot1_1/img10.jpg,Images/MSR-VTT-videoTestVideo_video8166-shot1_1/img11.jpg,Images/MSR-VTT-videoTestVideo_video8166-shot1_1/img14.jpg,Images/MSR-VTT-videoTestVideo_video8166-shot1_1/img15.jpg,Images/MSR-VTT-videoTestVideo_video8166-shot1_1/img16.jpg,Images/MSR-VTT-videoTestVideo_video8166-shot1_1/img17.jpg,Images/MSR-VTT-videoTestVideo_video8166-shot1_1/img20.jpg,Images/MSR-VTT-videoTestVideo_video8166-shot1_1/img22.jpg,Images/MSR-VTT-videoTestVideo_video8166-shot1_1/img23.jpg,Images/MSR-VTT-videoTestVideo_video8166-shot1_1/img24.jpg,38,30,0,2022-06-16_09h47.13.290,annotation,2021.2.3,Win32,143.9677512,,
,,,,,,,,,,,,,,,,,0.234259259,0.112037037,1,0,0,image_3,0,2,2,18,1,1199,A bunch of hair on top of a bed.,M,0,2,MSR-VTT-videoTestVideo_video7128-shot1_1,Images/MSR-VTT-videoTestVideo_video7128-shot1_1/img155.jpg,Images/MSR-VTT-videoTestVideo_video7128-shot1_1/img159.jpg,Images/MSR-VTT-videoTestVideo_video7128-shot1_1/img162.jpg,Images/MSR-VTT-videoTestVideo_video7128-shot1_1/img164.jpg,Images/MSR-VTT-videoTestVideo_video7128-shot1_1/img169.jpg,Images/MSR-VTT-videoTestVideo_video7128-shot1_1/img171.jpg,Images/MSR-VTT-videoTestVideo_video7128-shot1_1/img196.jpg,Images/MSR-VTT-videoTestVideo_video7128-shot1_1/img203.jpg,Images/MSR-VTT-videoTestVideo_video7128-shot1_1/img204.jpg,Images/MSR-VTT-videoTestVideo_video7128-shot1_1/img210.jpg,1888,30,0,2022-06-16_09h47.13.290,annotation,2021.2.3,Win32,143.9677512,,
,,,,,,,,,,,,,,,,,-0.196296296,-0.078703704,1,0,0,image_6,0,3,3,2,1,1085,A couple of children playing with a bowl of peanut butter.,M,0,4,video-storytelling-videobirthday__amwPjAcoC8-shot61_4,Images/video-storytelling-videobirthday__amwPjAcoC8-shot61_4/img133.jpg,Images/video-storytelling-videobirthday__amwPjAcoC8-shot61_4/img135.jpg,Images/video-storytelling-videobirthday__amwPjAcoC8-shot61_4/img138.jpg,Images/video-storytelling-videobirthday__amwPjAcoC8-shot61_4/img140.jpg,Images/video-storytelling-videobirthday__amwPjAcoC8-shot61_4/img142.jpg,Images/video-storytelling-videobirthday__amwPjAcoC8-shot61_4/img143.jpg,Images/video-storytelling-videobirthday__amwPjAcoC8-shot61_4/img145.jpg,Images/video-storytelling-videobirthday__amwPjAcoC8-shot61_4/img146.jpg,Images/video-storytelling-videobirthday__amwPjAcoC8-shot61_4/img147.jpg,Images/video-storytelling-videobirthday__amwPjAcoC8-shot61_4/img148.jpg,1770,30,0,2022-06-16_09h47.13.290,annotation,2021.2.3,Win32,143.9677512,,
,,,,,,,,,,,,,,,,,0.526851852,-0.175925926,1,0,0,image_9,0,4,4,4,1,760,The picture is the most zoomed out and the man on the right has his hand open with the thumb mostly pointing straight up. ,H,0,9,MSR-VTT-videoTestVideo_video8691-shot1_1,Images/MSR-VTT-videoTestVideo_video8691-shot1_1/img113.jpg,Images/MSR-VTT-videoTestVideo_video8691-shot1_1/img117.jpg,Images/MSR-VTT-videoTestVideo_video8691-shot1_1/img120.jpg,Images/MSR-VTT-videoTestVideo_video8691-shot1_1/img124.jpg,Images/MSR-VTT-videoTestVideo_video8691-shot1_1/img130.jpg,Images/MSR-VTT-videoTestVideo_video8691-shot1_1/img141.jpg,Images/MSR-VTT-videoTestVideo_video8691-shot1_1/img148.jpg,Images/MSR-VTT-videoTestVideo_video8691-shot1_1/img154.jpg,Images/MSR-VTT-videoTestVideo_video8691-shot1_1/img163.jpg,Images/MSR-VTT-videoTestVideo_video8691-shot1_1/img175.jpg,793,30,0,2022-06-16_09h47.13.290,annotation,2021.2.3,Win32,143.9677512,,
,,,,,,,,,,,,,,,,,0.508333333,-0.126851852,1,0,0,image_9,0,5,5,20,1,943,The boy with the red hat is off the bus with both feet down on the ground. His face is still pretty much in shadow. ,H,0,7,MSR-VTT-videoTestVideo_video9709-shot1_5,Images/MSR-VTT-videoTestVideo_video9709-shot1_5/img429.jpg,Images/MSR-VTT-videoTestVideo_video9709-shot1_5/img434.jpg,Images/MSR-VTT-videoTestVideo_video9709-shot1_5/img445.jpg,Images/MSR-VTT-videoTestVideo_video9709-shot1_5/img453.jpg,Images/MSR-VTT-videoTestVideo_video9709-shot1_5/img459.jpg,Images/MSR-VTT-videoTestVideo_video9709-shot1_5/img463.jpg,Images/MSR-VTT-videoTestVideo_video9709-shot1_5/img466.jpg,Images/MSR-VTT-videoTestVideo_video9709-shot1_5/img475.jpg,Images/MSR-VTT-videoTestVideo_video9709-shot1_5/img482.jpg,Images/MSR-VTT-videoTestVideo_video9709-shot1_5/img491.jpg,111,30,0,2022-06-16_09h47.13.290,annotation,2021.2.3,Win32,143.9677512,,
,,,,,,,,,,,,,,,,,0.206481481,-0.162037037,1,0,0,image_8,0,6,6,37,1,42,A smiling boy just begins to look towards the dog,H,0,7,video-storytelling-videobirthday__amwPjAcoC8-shot29_0,Images/video-storytelling-videobirthday__amwPjAcoC8-shot29_0/img0.jpg,Images/video-storytelling-videobirthday__amwPjAcoC8-shot29_0/img19.jpg,Images/video-storytelling-videobirthday__amwPjAcoC8-shot29_0/img56.jpg,Images/video-storytelling-videobirthday__amwPjAcoC8-shot29_0/img81.jpg,Images/video-storytelling-videobirthday__amwPjAcoC8-shot29_0/img86.jpg,Images/video-storytelling-videobirthday__amwPjAcoC8-shot29_0/img93.jpg,Images/video-storytelling-videobirthday__amwPjAcoC8-shot29_0/img105.jpg,Images/video-storytelling-videobirthday__amwPjAcoC8-shot29_0/img111.jpg,Images/video-storytelling-videobirthday__amwPjAcoC8-shot29_0/img119.jpg,Images/video-storytelling-videobirthday__amwPjAcoC8-shot29_0/img130.jpg,910,30,0,2022-06-16_09h47.13.290,annotation,2021.2.3,Win32,143.9677512,,
,,,,,,,,,,,,,,,,,-0.194444444,0.077777778,1,0,0,image_1,0,7,7,50,1,1398,A person is using a metal pot to cook vegetables.,M,0,6,MSR-VTT-videoTestVideo_video9693-shot2_1,Images/MSR-VTT-videoTestVideo_video9693-shot2_1/img68.jpg,Images/MSR-VTT-videoTestVideo_video9693-shot2_1/img85.jpg,Images/MSR-VTT-videoTestVideo_video9693-shot2_1/img117.jpg,Images/MSR-VTT-videoTestVideo_video9693-shot2_1/img121.jpg,Images/MSR-VTT-videoTestVideo_video9693-shot2_1/img128.jpg,Images/MSR-VTT-videoTestVideo_video9693-shot2_1/img132.jpg,Images/MSR-VTT-videoTestVideo_video9693-shot2_1/img134.jpg,Images/MSR-VTT-videoTestVideo_video9693-shot2_1/img152.jpg,Images/MSR-VTT-videoTestVideo_video9693-shot2_1/img155.jpg,Images/MSR-VTT-videoTestVideo_video9693-shot2_1/img158.jpg,1684,30,0,2022-06-16_09h47.13.290,annotation,2021.2.3,Win32,143.9677512,,
,,,,,,,,,,,,,,,,,-0.480555556,0.084259259,1,0,0,image_0,0,8,8,16,1,453,There is one white light shining towards the woman's shoes.,H,0,0,MSR-VTT-videoTestVideo_video7663-shot3_0,Images/MSR-VTT-videoTestVideo_video7663-shot3_0/img0.jpg,Images/MSR-VTT-videoTestVideo_video7663-shot3_0/img12.jpg,Images/MSR-VTT-videoTestVideo_video7663-shot3_0/img22.jpg,Images/MSR-VTT-videoTestVideo_video7663-shot3_0/img23.jpg,Images/MSR-VTT-videoTestVideo_video7663-shot3_0/img25.jpg,Images/MSR-VTT-videoTestVideo_video7663-shot3_0/img29.jpg,Images/MSR-VTT-videoTestVideo_video7663-shot3_0/img32.jpg,Images/MSR-VTT-videoTestVideo_video7663-shot3_0/img35.jpg,Images/MSR-VTT-videoTestVideo_video7663-shot3_0/img37.jpg,Images/MSR-VTT-videoTestVideo_video7663-shot3_0/img40.jpg,1077,30,0,2022-06-16_09h47.13.290,annotation,2021.2.3,Win32,143.9677512,,
,,,,,,,,,,,,,,,,,0.260185185,0.1,1,0,0,image_3,0,9,9,24,1,986,"Most of the kid's left hand is visible, but the thumb and forefinger are blocked by his ear. The dog with the yellow hat is visible.",H,0,3,video-storytelling-videobirthday__amwPjAcoC8-shot73_4,Images/video-storytelling-videobirthday__amwPjAcoC8-shot73_4/img129.jpg,Images/video-storytelling-videobirthday__amwPjAcoC8-shot73_4/img130.jpg,Images/video-storytelling-videobirthday__amwPjAcoC8-shot73_4/img136.jpg,Images/video-storytelling-videobirthday__amwPjAcoC8-shot73_4/img139.jpg,Images/video-storytelling-videobirthday__amwPjAcoC8-shot73_4/img149.jpg,Images/video-storytelling-videobirthday__amwPjAcoC8-shot73_4/img153.jpg,Images/video-storytelling-videobirthday__amwPjAcoC8-shot73_4/img155.jpg,Images/video-storytelling-videobirthday__amwPjAcoC8-shot73_4/img157.jpg,Images/video-storytelling-videobirthday__amwPjAcoC8-shot73_4/img160.jpg,Images/video-storytelling-videobirthday__amwPjAcoC8-shot73_4/img162.jpg,1834,30,0,2022-06-16_09h47.13.290,annotation,2021.2.3,Win32,143.9677512,,
,,,,,,,,,,,,,,,,,-0.421296296,-0.116666667,1,0,0,image_5,0,10,10,34,1,1221,A child holding a video game controller in his hand.,M,0,7,video-storytelling-videochristmas_5RR_sRzKODA-shot23_5,Images/video-storytelling-videochristmas_5RR_sRzKODA-shot23_5/img226.jpg,Images/video-storytelling-videochristmas_5RR_sRzKODA-shot23_5/img236.jpg,Images/video-storytelling-videochristmas_5RR_sRzKODA-shot23_5/img243.jpg,Images/video-storytelling-videochristmas_5RR_sRzKODA-shot23_5/img254.jpg,Images/video-storytelling-videochristmas_5RR_sRzKODA-shot23_5/img256.jpg,Images/video-storytelling-videochristmas_5RR_sRzKODA-shot23_5/img261.jpg,Images/video-storytelling-videochristmas_5RR_sRzKODA-shot23_5/img263.jpg,Images/video-storytelling-videochristmas_5RR_sRzKODA-shot23_5/img264.jpg,Images/video-storytelling-videochristmas_5RR_sRzKODA-shot23_5/img266.jpg,Images/video-storytelling-videochristmas_5RR_sRzKODA-shot23_5/img267.jpg,60,30,0,2022-06-16_09h47.13.290,annotation,2021.2.3,Win32,143.9677512,,
,,,,,,,,,,,,,,,,,-0.462037037,-0.121296296,1,0,0,image_5,0,11,11,44,1,39,the man in yellow shirt can be seen to the right edge of the image,H,0,5,MSR-VTT-videoTestVideo_video7522-shot8_0,Images/MSR-VTT-videoTestVideo_video7522-shot8_0/img0.jpg,Images/MSR-VTT-videoTestVideo_video7522-shot8_0/img1.jpg,Images/MSR-VTT-videoTestVideo_video7522-shot8_0/img2.jpg,Images/MSR-VTT-videoTestVideo_video7522-shot8_0/img3.jpg,Images/MSR-VTT-videoTestVideo_video7522-shot8_0/img4.jpg,Images/MSR-VTT-videoTestVideo_video7522-shot8_0/img5.jpg,Images/MSR-VTT-videoTestVideo_video7522-shot8_0/img6.jpg,Images/MSR-VTT-videoTestVideo_video7522-shot8_0/img7.jpg,Images/MSR-VTT-videoTestVideo_video7522-shot8_0/img8.jpg,Images/MSR-VTT-videoTestVideo_video7522-shot8_0/img9.jpg,1675,30,0,2022-06-16_09h47.13.290,annotation,2021.2.3,Win32,143.9677512,,
,,,,,,,,,,,,,,,,,-0.489814815,-0.151851852,1,0,0,image_5,0,12,12,30,1,277,Woman all the way to the left has the right side of their sunglasses cut off by the frame. You can't see any of the right sunglass frame.,H,1,5,video-storytelling-videocamping_1OzbiB1TIWI-shot45_0,Images/video-storytelling-videocamping_1OzbiB1TIWI-shot45_0/img0.jpg,Images/video-storytelling-videocamping_1OzbiB1TIWI-shot45_0/img1.jpg,Images/video-storytelling-videocamping_1OzbiB1TIWI-shot45_0/img4.jpg,Images/video-storytelling-videocamping_1OzbiB1TIWI-shot45_0/img10.jpg,Images/video-storytelling-videocamping_1OzbiB1TIWI-shot45_0/img15.jpg,Images/video-storytelling-videocamping_1OzbiB1TIWI-shot45_0/img22.jpg,Images/video-storytelling-videocamping_1OzbiB1TIWI-shot45_0/img25.jpg,Images/video-storytelling-videocamping_1OzbiB1TIWI-shot45_0/img27.jpg,Images/video-storytelling-videocamping_1OzbiB1TIWI-shot45_0/img28.jpg,Images/video-storytelling-videocamping_1OzbiB1TIWI-shot45_0/img30.jpg,1941,30,0,2022-06-16_09h47.13.290,annotation,2021.2.3,Win32,143.9677512,,
,,,,,,,,,,,,,,,,,0.248148148,-0.108333333,1,0,0,image_8,0,13,13,53,1,1768,A group of animals eating from a feeder.,M,0,4,MSR-VTT-videoTestVideo_video7295-shot1_13,Images/MSR-VTT-videoTestVideo_video7295-shot1_13/img251.jpg,Images/MSR-VTT-videoTestVideo_video7295-shot1_13/img254.jpg,Images/MSR-VTT-videoTestVideo_video7295-shot1_13/img255.jpg,Images/MSR-VTT-videoTestVideo_video7295-shot1_13/img258.jpg,Images/MSR-VTT-videoTestVideo_video7295-shot1_13/img262.jpg,Images/MSR-VTT-videoTestVideo_video7295-shot1_13/img264.jpg,Images/MSR-VTT-videoTestVideo_video7295-shot1_13/img266.jpg,Images/MSR-VTT-videoTestVideo_video7295-shot1_13/img268.jpg,Images/MSR-VTT-videoTestVideo_video7295-shot1_13/img271.jpg,Images/MSR-VTT-videoTestVideo_video7295-shot1_13/img272.jpg,1592,30,0,2022-06-16_09h47.13.290,annotation,2021.2.3,Win32,143.9677512,,
,,,,,,,,,,,,,,,,,0.478703704,-0.141666667,1,0,0,image_9,0,14,14,26,1,1097,A person baking bread in a pan on a table.,M,0,1,YouCook-video0097-shot9_0,Images/YouCook-video0097-shot9_0/img0.jpg,Images/YouCook-video0097-shot9_0/img11.jpg,Images/YouCook-video0097-shot9_0/img48.jpg,Images/YouCook-video0097-shot9_0/img51.jpg,Images/YouCook-video0097-shot9_0/img54.jpg,Images/YouCook-video0097-shot9_0/img57.jpg,Images/YouCook-video0097-shot9_0/img58.jpg,Images/YouCook-video0097-shot9_0/img59.jpg,Images/YouCook-video0097-shot9_0/img62.jpg,Images/YouCook-video0097-shot9_0/img76.jpg,872,30,0,2022-06-16_09h47.13.290,annotation,2021.2.3,Win32,143.9677512,,
,,,,,,,,,,,,,,,,,0.494444444,0.122222222,1,0,0,image_4,0,15,15,52,1,1026,she is in the middle of the second word on the wall alone with left arm back and left leg forward,H,0,4,MSR-VTT-videoTestVideo_video8156-shot3_1,Images/MSR-VTT-videoTestVideo_video8156-shot3_1/img89.jpg,Images/MSR-VTT-videoTestVideo_video8156-shot3_1/img91.jpg,Images/MSR-VTT-videoTestVideo_video8156-shot3_1/img96.jpg,Images/MSR-VTT-videoTestVideo_video8156-shot3_1/img147.jpg,Images/MSR-VTT-videoTestVideo_video8156-shot3_1/img150.jpg,Images/MSR-VTT-videoTestVideo_video8156-shot3_1/img154.jpg,Images/MSR-VTT-videoTestVideo_video8156-shot3_1/img157.jpg,Images/MSR-VTT-videoTestVideo_video8156-shot3_1/img169.jpg,Images/MSR-VTT-videoTestVideo_video8156-shot3_1/img177.jpg,Images/MSR-VTT-videoTestVideo_video8156-shot3_1/img180.jpg,222,30,0,2022-06-16_09h47.13.290,annotation,2021.2.3,Win32,143.9677512,,
,,,,,,,,,,,,,,,,,0.25462963,-0.127777778,1,0,0,image_8,0,16,16,25,1,1994,A man in a suit and tie standing in front of a computer.,M,1,2,MSR-VTT-videoTestVideo_video7224-shot1_2,Images/MSR-VTT-videoTestVideo_video7224-shot1_2/img323.jpg,Images/MSR-VTT-videoTestVideo_video7224-shot1_2/img332.jpg,Images/MSR-VTT-videoTestVideo_video7224-shot1_2/img338.jpg,Images/MSR-VTT-videoTestVideo_video7224-shot1_2/img347.jpg,Images/MSR-VTT-videoTestVideo_video7224-shot1_2/img383.jpg,Images/MSR-VTT-videoTestVideo_video7224-shot1_2/img396.jpg,Images/MSR-VTT-videoTestVideo_video7224-shot1_2/img405.jpg,Images/MSR-VTT-videoTestVideo_video7224-shot1_2/img452.jpg,Images/MSR-VTT-videoTestVideo_video7224-shot1_2/img484.jpg,Images/MSR-VTT-videoTestVideo_video7224-shot1_2/img507.jpg,1833,30,0,2022-06-16_09h47.13.290,annotation,2021.2.3,Win32,143.9677512,,
,,,,,,,,,,,,,,,,,-0.518518519,0.175,1,0,0,image_0,0,17,17,56,1,1987,A person is standing in front of a bus.,M,1,7,MSR-VTT-videoTestVideo_video9709-shot1_5,Images/MSR-VTT-videoTestVideo_video9709-shot1_5/img429.jpg,Images/MSR-VTT-videoTestVideo_video9709-shot1_5/img434.jpg,Images/MSR-VTT-videoTestVideo_video9709-shot1_5/img445.jpg,Images/MSR-VTT-videoTestVideo_video9709-shot1_5/img453.jpg,Images/MSR-VTT-videoTestVideo_video9709-shot1_5/img459.jpg,Images/MSR-VTT-videoTestVideo_video9709-shot1_5/img463.jpg,Images/MSR-VTT-videoTestVideo_video9709-shot1_5/img466.jpg,Images/MSR-VTT-videoTestVideo_video9709-shot1_5/img475.jpg,Images/MSR-VTT-videoTestVideo_video9709-shot1_5/img482.jpg,Images/MSR-VTT-videoTestVideo_video9709-shot1_5/img491.jpg,1680,30,0,2022-06-16_09h47.13.290,annotation,2021.2.3,Win32,143.9677512,,
,,,,,,,,,,,,,,,,,-0.488888889,0.211111111,1,0,0,image_0,0,18,18,3,1,1863,A black and white photo of a woman and a raccoon.,M,0,1,MSR-VTT-videoTestVideo_video7622-shot4_0,Images/MSR-VTT-videoTestVideo_video7622-shot4_0/img0.jpg,Images/MSR-VTT-videoTestVideo_video7622-shot4_0/img1.jpg,Images/MSR-VTT-videoTestVideo_video7622-shot4_0/img3.jpg,Images/MSR-VTT-videoTestVideo_video7622-shot4_0/img6.jpg,Images/MSR-VTT-videoTestVideo_video7622-shot4_0/img12.jpg,Images/MSR-VTT-videoTestVideo_video7622-shot4_0/img23.jpg,Images/MSR-VTT-videoTestVideo_video7622-shot4_0/img27.jpg,Images/MSR-VTT-videoTestVideo_video7622-shot4_0/img31.jpg,Images/MSR-VTT-videoTestVideo_video7622-shot4_0/img32.jpg,Images/MSR-VTT-videoTestVideo_video7622-shot4_0/img38.jpg,853,30,0,2022-06-16_09h47.13.290,annotation,2021.2.3,Win32,143.9677512,,
,,,,,,,,,,,,,,,,,0.536111111,-0.209259259,1,0,0,image_9,0,19,19,33,1,238,The person's pointer finger is completely covering the thumb.,H,0,3,MSR-VTT-videoTestVideo_video9528-shot1_0,Images/MSR-VTT-videoTestVideo_video9528-shot1_0/img0.jpg,Images/MSR-VTT-videoTestVideo_video9528-shot1_0/img6.jpg,Images/MSR-VTT-videoTestVideo_video9528-shot1_0/img16.jpg,Images/MSR-VTT-videoTestVideo_video9528-shot1_0/img25.jpg,Images/MSR-VTT-videoTestVideo_video9528-shot1_0/img52.jpg,Images/MSR-VTT-videoTestVideo_video9528-shot1_0/img55.jpg,Images/MSR-VTT-videoTestVideo_video9528-shot1_0/img82.jpg,Images/MSR-VTT-videoTestVideo_video9528-shot1_0/img140.jpg,Images/MSR-VTT-videoTestVideo_video9528-shot1_0/img167.jpg,Images/MSR-VTT-videoTestVideo_video9528-shot1_0/img180.jpg,1790,30,0,2022-06-16_09h47.13.290,annotation,2021.2.3,Win32,143.9677512,,
,,,,,,,,,,,,,,,,,0.474074074,0.119444444,1,0,0,image_4,0,20,20,48,1,72,A man in suit and tie has left hand by face with eyes looking down,H,0,4,MSR-VTT-videoTestVideo_video9623-shot1_1,Images/MSR-VTT-videoTestVideo_video9623-shot1_1/img39.jpg,Images/MSR-VTT-videoTestVideo_video9623-shot1_1/img41.jpg,Images/MSR-VTT-videoTestVideo_video9623-shot1_1/img43.jpg,Images/MSR-VTT-videoTestVideo_video9623-shot1_1/img45.jpg,Images/MSR-VTT-videoTestVideo_video9623-shot1_1/img120.jpg,Images/MSR-VTT-videoTestVideo_video9623-shot1_1/img138.jpg,Images/MSR-VTT-videoTestVideo_video9623-shot1_1/img141.jpg,Images/MSR-VTT-videoTestVideo_video9623-shot1_1/img144.jpg,Images/MSR-VTT-videoTestVideo_video9623-shot1_1/img146.jpg,Images/MSR-VTT-videoTestVideo_video9623-shot1_1/img148.jpg,1460,30,0,2022-06-16_09h47.13.290,annotation,2021.2.3,Win32,143.9677512,,
,,,,,,,,,,,,,,,,,0.250925926,0.137037037,1,0,0,image_3,0,21,21,36,1,926,There is new picture of a pie plate with a black background coming in over top of the blue plate. The blue plate picture is covering the right 1/4 of the entire screen. ,H,0,3,MSR-VTT-videoTestVideo_video9640-shot1_1,Images/MSR-VTT-videoTestVideo_video9640-shot1_1/img80.jpg,Images/MSR-VTT-videoTestVideo_video9640-shot1_1/img85.jpg,Images/MSR-VTT-videoTestVideo_video9640-shot1_1/img90.jpg,Images/MSR-VTT-videoTestVideo_video9640-shot1_1/img91.jpg,Images/MSR-VTT-videoTestVideo_video9640-shot1_1/img163.jpg,Images/MSR-VTT-videoTestVideo_video9640-shot1_1/img169.jpg,Images/MSR-VTT-videoTestVideo_video9640-shot1_1/img174.jpg,Images/MSR-VTT-videoTestVideo_video9640-shot1_1/img175.jpg,Images/MSR-VTT-videoTestVideo_video9640-shot1_1/img176.jpg,Images/MSR-VTT-videoTestVideo_video9640-shot1_1/img181.jpg,435,30,0,2022-06-16_09h47.13.290,annotation,2021.2.3,Win32,143.9677512,,
,,,,,,,,,,,,,,,,,-0.266666667,0.157407407,1,0,0,image_1,0,22,22,62,1,4,A penguin holding a piece of paper with text on it. ,H,,1,open-images-2521_074d6af730ed17a6,Checks/check5/open-images-509_4d8bd994cb8c6eaeimg0.jpg,Checks/check5/open-images-2521_074d6af730ed17a6img1.jpg,Checks/check5/open-images-1365_a00a5fde334ae45aimg4.jpg,Checks/check5/open-images-1602_44092afdeab39e73img6.jpg,Checks/check5/open-images-1032_059f3cdfb85ee0ceimg3.jpg,Checks/check5/open-images-727_25b77fff36adba66img2.jpg,Checks/check5/open-images-2208_0fb92b9978d98575img2.jpg,Checks/check5/open-images-1305_05769e6abb16fdc8img9.jpg,Checks/check5/open-images-2676_052dbf7b4899430bimg1.jpg,Checks/check5/open-images-2569_1e81d79bb796a2dbimg7.jpg,,,1,2022-06-16_09h47.13.290,annotation,2021.2.3,Win32,143.9677512,,
,,,,,,,,,,,,,,,,,-0.472222222,0.102777778,1,0,0,image_0,0,23,23,45,1,1673,A basketball player standing next to a basketball court.,M,0,2,MSR-VTT-videoTestVideo_video8465-shot1_0,Images/MSR-VTT-videoTestVideo_video8465-shot1_0/img0.jpg,Images/MSR-VTT-videoTestVideo_video8465-shot1_0/img3.jpg,Images/MSR-VTT-videoTestVideo_video8465-shot1_0/img6.jpg,Images/MSR-VTT-videoTestVideo_video8465-shot1_0/img10.jpg,Images/MSR-VTT-videoTestVideo_video8465-shot1_0/img12.jpg,Images/MSR-VTT-videoTestVideo_video8465-shot1_0/img23.jpg,Images/MSR-VTT-videoTestVideo_video8465-shot1_0/img32.jpg,Images/MSR-VTT-videoTestVideo_video8465-shot1_0/img36.jpg,Images/MSR-VTT-videoTestVideo_video8465-shot1_0/img41.jpg,Images/MSR-VTT-videoTestVideo_video8465-shot1_0/img44.jpg,1577,30,0,2022-06-16_09h47.13.290,annotation,2021.2.3,Win32,143.9677512,,
,,,,,,,,,,,,,,,,,-0.269444444,-0.107407407,1,0,0,image_6,0,24,24,47,1,1041,The red head singer is completely blocking the stripe shirt singer.  She is also covering a small section of the red dress of the other singer.,H,0,6,MSR-VTT-videoTestVideo_video7756-shot1_0,Images/MSR-VTT-videoTestVideo_video7756-shot1_0/img0.jpg,Images/MSR-VTT-videoTestVideo_video7756-shot1_0/img5.jpg,Images/MSR-VTT-videoTestVideo_video7756-shot1_0/img12.jpg,Images/MSR-VTT-videoTestVideo_video7756-shot1_0/img16.jpg,Images/MSR-VTT-videoTestVideo_video7756-shot1_0/img21.jpg,Images/MSR-VTT-videoTestVideo_video7756-shot1_0/img26.jpg,Images/MSR-VTT-videoTestVideo_video7756-shot1_0/img28.jpg,Images/MSR-VTT-videoTestVideo_video7756-shot1_0/img30.jpg,Images/MSR-VTT-videoTestVideo_video7756-shot1_0/img34.jpg,Images/MSR-VTT-videoTestVideo_video7756-shot1_0/img37.jpg,300,30,0,2022-06-16_09h47.13.290,annotation,2021.2.3,Win32,143.9677512,,
,,,,,,,,,,,,,,,,,0.034259259,-0.127777778,1,0,0,image_7,0,25,25,43,1,945,"The dog's eyes are at the very top, no people's arms are visible.",H,0,7,video-storytelling-videobirthday__amwPjAcoC8-shot80_4,Images/video-storytelling-videobirthday__amwPjAcoC8-shot80_4/img196.jpg,Images/video-storytelling-videobirthday__amwPjAcoC8-shot80_4/img223.jpg,Images/video-storytelling-videobirthday__amwPjAcoC8-shot80_4/img233.jpg,Images/video-storytelling-videobirthday__amwPjAcoC8-shot80_4/img241.jpg,Images/video-storytelling-videobirthday__amwPjAcoC8-shot80_4/img250.jpg,Images/video-storytelling-videobirthday__amwPjAcoC8-shot80_4/img257.jpg,Images/video-storytelling-videobirthday__amwPjAcoC8-shot80_4/img260.jpg,Images/video-storytelling-videobirthday__amwPjAcoC8-shot80_4/img272.jpg,Images/video-storytelling-videobirthday__amwPjAcoC8-shot80_4/img274.jpg,Images/video-storytelling-videobirthday__amwPjAcoC8-shot80_4/img276.jpg,1331,30,0,2022-06-16_09h47.13.290,annotation,2021.2.3,Win32,143.9677512,,
,,,,,,,,,,,,,,,,,-0.194444444,0.111111111,1,0,0,image_1,0,26,26,32,1,295,The bowl of flour is one third visible and the chocolate bowl is not quite fully visible while the eggs are fully visible.,H,0,1,YouCook-video0010-shot1_1,Images/YouCook-video0010-shot1_1/img165.jpg,Images/YouCook-video0010-shot1_1/img179.jpg,Images/YouCook-video0010-shot1_1/img189.jpg,Images/YouCook-video0010-shot1_1/img201.jpg,Images/YouCook-video0010-shot1_1/img213.jpg,Images/YouCook-video0010-shot1_1/img216.jpg,Images/YouCook-video0010-shot1_1/img226.jpg,Images/YouCook-video0010-shot1_1/img235.jpg,Images/YouCook-video0010-shot1_1/img240.jpg,Images/YouCook-video0010-shot1_1/img251.jpg,75,30,0,2022-06-16_09h47.13.290,annotation,2021.2.3,Win32,143.9677512,,
,,,,,,,,,,,,,,,,,0.426851852,-0.087962963,1,0,0,image_9,0,27,27,8,1,1072,A person cutting a piece of bread on a table.,M,0,5,YouCook-video0017-shot2_0,Images/YouCook-video0017-shot2_0/img0.jpg,Images/YouCook-video0017-shot2_0/img3.jpg,Images/YouCook-video0017-shot2_0/img17.jpg,Images/YouCook-video0017-shot2_0/img55.jpg,Images/YouCook-video0017-shot2_0/img64.jpg,Images/YouCook-video0017-shot2_0/img79.jpg,Images/YouCook-video0017-shot2_0/img82.jpg,Images/YouCook-video0017-shot2_0/img85.jpg,Images/YouCook-video0017-shot2_0/img94.jpg,Images/YouCook-video0017-shot2_0/img97.jpg,182,30,0,2022-06-16_09h47.13.290,annotation,2021.2.3,Win32,143.9677512,,
,,,,,,,,,,,,,,,,,0.292592593,0.146296296,1,0,0,image_3,0,28,28,42,1,236,"The woman in the white hat is facing left, you can see her profile. The black hat is covering part of her cheek. You can see the end of the nose and the mouth of the person in the black hat, their sunglasses are mostly covered by the hat brim.",H,0,3,MSR-VTT-videoTestVideo_video8954-shot1_6,Images/MSR-VTT-videoTestVideo_video8954-shot1_6/img464.jpg,Images/MSR-VTT-videoTestVideo_video8954-shot1_6/img467.jpg,Images/MSR-VTT-videoTestVideo_video8954-shot1_6/img469.jpg,Images/MSR-VTT-videoTestVideo_video8954-shot1_6/img471.jpg,Images/MSR-VTT-videoTestVideo_video8954-shot1_6/img475.jpg,Images/MSR-VTT-videoTestVideo_video8954-shot1_6/img480.jpg,Images/MSR-VTT-videoTestVideo_video8954-shot1_6/img490.jpg,Images/MSR-VTT-videoTestVideo_video8954-shot1_6/img495.jpg,Images/MSR-VTT-videoTestVideo_video8954-shot1_6/img497.jpg,Images/MSR-VTT-videoTestVideo_video8954-shot1_6/img501.jpg,1465,30,0,2022-06-16_09h47.13.290,annotation,2021.2.3,Win32,143.9677512,,
,,,,,,,,,,,,,,,,,0.272222222,-0.112962963,1,0,0,image_8,0,29,29,17,1,1579,A person holding a large piece of fish on a plate.,M,0,2,YouCook-video0023-shot1_1,Images/YouCook-video0023-shot1_1/img227.jpg,Images/YouCook-video0023-shot1_1/img254.jpg,Images/YouCook-video0023-shot1_1/img320.jpg,Images/YouCook-video0023-shot1_1/img322.jpg,Images/YouCook-video0023-shot1_1/img324.jpg,Images/YouCook-video0023-shot1_1/img326.jpg,Images/YouCook-video0023-shot1_1/img329.jpg,Images/YouCook-video0023-shot1_1/img332.jpg,Images/YouCook-video0023-shot1_1/img336.jpg,Images/YouCook-video0023-shot1_1/img341.jpg,1082,30,0,2022-06-16_09h47.13.290,annotation,2021.2.3,Win32,143.9677512,,
,,,,,,,,,,,,,,,,,-0.472222222,-0.202777778,1,0,0,image_5,0,30,30,57,1,286,"only the white measuring cup is visible but not eh hand holding it, while the fingertips of the hand holding the yellow object are visible",H,0,5,MSR-VTT-videoTestVideo_video7561-shot1_0,Images/MSR-VTT-videoTestVideo_video7561-shot1_0/img0.jpg,Images/MSR-VTT-videoTestVideo_video7561-shot1_0/img5.jpg,Images/MSR-VTT-videoTestVideo_video7561-shot1_0/img13.jpg,Images/MSR-VTT-videoTestVideo_video7561-shot1_0/img33.jpg,Images/MSR-VTT-videoTestVideo_video7561-shot1_0/img38.jpg,Images/MSR-VTT-videoTestVideo_video7561-shot1_0/img46.jpg,Images/MSR-VTT-videoTestVideo_video7561-shot1_0/img53.jpg,Images/MSR-VTT-videoTestVideo_video7561-shot1_0/img62.jpg,Images/MSR-VTT-videoTestVideo_video7561-shot1_0/img75.jpg,Images/MSR-VTT-videoTestVideo_video7561-shot1_0/img81.jpg,1536,30,0,2022-06-16_09h47.13.290,annotation,2021.2.3,Win32,143.9677512,,
,,,,,,,,,,,,,,,,,0.456481481,0.101851852,1,0,0,image_4,0,31,31,6,1,346,A woman is crossing in front of the picture with a ponytail.  The ponytail is blocking the bride's face. ,H,1,4,video-storytelling-videowedding_Bp8t824h5NE-shot55_3,Images/video-storytelling-videowedding_Bp8t824h5NE-shot55_3/img501.jpg,Images/video-storytelling-videowedding_Bp8t824h5NE-shot55_3/img510.jpg,Images/video-storytelling-videowedding_Bp8t824h5NE-shot55_3/img516.jpg,Images/video-storytelling-videowedding_Bp8t824h5NE-shot55_3/img519.jpg,Images/video-storytelling-videowedding_Bp8t824h5NE-shot55_3/img522.jpg,Images/video-storytelling-videowedding_Bp8t824h5NE-shot55_3/img525.jpg,Images/video-storytelling-videowedding_Bp8t824h5NE-shot55_3/img528.jpg,Images/video-storytelling-videowedding_Bp8t824h5NE-shot55_3/img531.jpg,Images/video-storytelling-videowedding_Bp8t824h5NE-shot55_3/img552.jpg,Images/video-storytelling-videowedding_Bp8t824h5NE-shot55_3/img596.jpg,812,30,0,2022-06-16_09h47.13.290,annotation,2021.2.3,Win32,143.9677512,,
,,,,,,,,,,,,,,,,,0.508333333,-0.140740741,1,0,0,image_9,0,32,32,15,1,292,You can only see one person.,H,0,9,video-storytelling-videocamping_1OzbiB1TIWI-shot12_8,Images/video-storytelling-videocamping_1OzbiB1TIWI-shot12_8/img429.jpg,Images/video-storytelling-videocamping_1OzbiB1TIWI-shot12_8/img439.jpg,Images/video-storytelling-videocamping_1OzbiB1TIWI-shot12_8/img440.jpg,Images/video-storytelling-videocamping_1OzbiB1TIWI-shot12_8/img441.jpg,Images/video-storytelling-videocamping_1OzbiB1TIWI-shot12_8/img443.jpg,Images/video-storytelling-videocamping_1OzbiB1TIWI-shot12_8/img445.jpg,Images/video-storytelling-videocamping_1OzbiB1TIWI-shot12_8/img452.jpg,Images/video-storytelling-videocamping_1OzbiB1TIWI-shot12_8/img456.jpg,Images/video-storytelling-videocamping_1OzbiB1TIWI-shot12_8/img458.jpg,Images/video-storytelling-videocamping_1OzbiB1TIWI-shot12_8/img466.jpg,167,30,0,2022-06-16_09h47.13.290,annotation,2021.2.3,Win32,143.9677512,,
,,,,,,,,,,,,,,,,,0.005555556,0.161111111,1,0,0,image_2,0,33,33,58,1,0,Pair of black gloves,H,,2,open-images-510_3a241cb30d6e5319,Checks/check1/open-images-225_1442c0d0ef23d58bimg3.jpg,Checks/check1/open-images-2759_3a42708fe77398b7img8.jpg,Checks/check1/open-images-510_3a241cb30d6e5319img2.jpg,Checks/check1/open-images-2209_02c98146fb93ff17img1.jpg,Checks/check1/open-images-1553_0f128317e56a9d2fimg9.jpg,Checks/check1/open-images-2666_044d7c6d11e6b493img8.jpg,Checks/check1/open-images-2880_159294646083f545img4.jpg,Checks/check1/open-images-609_2dc0baa993a2bd25img5.jpg,Checks/check1/open-images-1854_2b15616b4f1080e7img2.jpg,Checks/check1/open-images-1435_1b0ce31951048765img8.jpg,,,1,2022-06-16_09h47.13.290,annotation,2021.2.3,Win32,143.9677512,,
,,,,,,,,,,,,,,,,,0.483333333,0.128703704,1,0,0,image_4,0,34,34,54,1,339,A very bright picture of some people.  There is a very bright white light on the screen but you can still make out that there are people in the shot. ,H,0,4,MSR-VTT-videoTestVideo_video8633-shot1_0,Images/MSR-VTT-videoTestVideo_video8633-shot1_0/img0.jpg,Images/MSR-VTT-videoTestVideo_video8633-shot1_0/img3.jpg,Images/MSR-VTT-videoTestVideo_video8633-shot1_0/img6.jpg,Images/MSR-VTT-videoTestVideo_video8633-shot1_0/img7.jpg,Images/MSR-VTT-videoTestVideo_video8633-shot1_0/img8.jpg,Images/MSR-VTT-videoTestVideo_video8633-shot1_0/img9.jpg,Images/MSR-VTT-videoTestVideo_video8633-shot1_0/img14.jpg,Images/MSR-VTT-videoTestVideo_video8633-shot1_0/img27.jpg,Images/MSR-VTT-videoTestVideo_video8633-shot1_0/img66.jpg,Images/MSR-VTT-videoTestVideo_video8633-shot1_0/img94.jpg,380,30,0,2022-06-16_09h47.13.290,annotation,2021.2.3,Win32,143.9677512,,
,,,,,,,,,,,,,,,,,0.452777778,-0.112962963,1,0,0,image_9,0,35,35,28,1,1381,A dog is jumping up and down in the air.,M,0,9,MSR-VTT-videoTestVideo_video9415-shot1_9,Images/MSR-VTT-videoTestVideo_video9415-shot1_9/img286.jpg,Images/MSR-VTT-videoTestVideo_video9415-shot1_9/img293.jpg,Images/MSR-VTT-videoTestVideo_video9415-shot1_9/img294.jpg,Images/MSR-VTT-videoTestVideo_video9415-shot1_9/img298.jpg,Images/MSR-VTT-videoTestVideo_video9415-shot1_9/img306.jpg,Images/MSR-VTT-videoTestVideo_video9415-shot1_9/img310.jpg,Images/MSR-VTT-videoTestVideo_video9415-shot1_9/img315.jpg,Images/MSR-VTT-videoTestVideo_video9415-shot1_9/img321.jpg,Images/MSR-VTT-videoTestVideo_video9415-shot1_9/img328.jpg,Images/MSR-VTT-videoTestVideo_video9415-shot1_9/img333.jpg,94,30,0,2022-06-16_09h47.13.290,annotation,2021.2.3,Win32,143.9677512,,
,,,,,,,,,,,,,,,,,0.47037037,-0.153703704,1,0,0,image_9,0,36,36,0,1,1727,A cat is standing on a bed with a leg on it.,M,1,5,MSR-VTT-videoTestVideo_video9455-shot1_4,Images/MSR-VTT-videoTestVideo_video9455-shot1_4/img127.jpg,Images/MSR-VTT-videoTestVideo_video9455-shot1_4/img129.jpg,Images/MSR-VTT-videoTestVideo_video9455-shot1_4/img130.jpg,Images/MSR-VTT-videoTestVideo_video9455-shot1_4/img136.jpg,Images/MSR-VTT-videoTestVideo_video9455-shot1_4/img138.jpg,Images/MSR-VTT-videoTestVideo_video9455-shot1_4/img139.jpg,Images/MSR-VTT-videoTestVideo_video9455-shot1_4/img141.jpg,Images/MSR-VTT-videoTestVideo_video9455-shot1_4/img142.jpg,Images/MSR-VTT-videoTestVideo_video9455-shot1_4/img143.jpg,Images/MSR-VTT-videoTestVideo_video9455-shot1_4/img152.jpg,609,30,0,2022-06-16_09h47.13.290,annotation,2021.2.3,Win32,143.9677512,,
,,,,,,,,,,,,,,,,,-0.490740741,-0.117592593,1,0,0,image_5,0,37,37,59,1,1,The only picture of a hawk.  It is looking to the left.  You see lots of branches and darker blue sky. ,H,,5,open-images-958_686caac9c5b322e7,Checks/check2/open-images-2603_1b5152f01f0093e7img3.jpg,Checks/check2/open-images-1836_069810916ce5d675img8.jpg,Checks/check2/open-images-974_0748fdedc4bf8b7bimg2.jpg,Checks/check2/open-images-617_01fb725fb1aa7b04img6.jpg,Checks/check2/open-images-507_047769e1f977cd97img2.jpg,Checks/check2/open-images-958_686caac9c5b322e7img5.jpg,Checks/check2/open-images-1278_21851d9bf5dc05c9img7.jpg,Checks/check2/open-images-2424_05f04546e01499f2img0.jpg,Checks/check2/open-images-1529_1442b11a10a6aeadimg3.jpg,Checks/check2/open-images-514_2c523ddedc2561d4img1.jpg,,,1,2022-06-16_09h47.13.290,annotation,2021.2.3,Win32,143.9677512,,
,,,,,,,,,,,,,,,,,0.531481481,0.1,1,0,0,image_4,0,38,38,12,1,852,A small sliver of brown is visible on the black object to the left of the right side of the doorframe,H,0,3,MSR-VTT-videoTestVideo_video7059-shot1_1,Images/MSR-VTT-videoTestVideo_video7059-shot1_1/img413.jpg,Images/MSR-VTT-videoTestVideo_video7059-shot1_1/img426.jpg,Images/MSR-VTT-videoTestVideo_video7059-shot1_1/img440.jpg,Images/MSR-VTT-videoTestVideo_video7059-shot1_1/img449.jpg,Images/MSR-VTT-videoTestVideo_video7059-shot1_1/img467.jpg,Images/MSR-VTT-videoTestVideo_video7059-shot1_1/img487.jpg,Images/MSR-VTT-videoTestVideo_video7059-shot1_1/img496.jpg,Images/MSR-VTT-videoTestVideo_video7059-shot1_1/img500.jpg,Images/MSR-VTT-videoTestVideo_video7059-shot1_1/img525.jpg,Images/MSR-VTT-videoTestVideo_video7059-shot1_1/img540.jpg,807,30,0,2022-06-16_09h47.13.290,annotation,2021.2.3,Win32,143.9677512,,
,,,,,,,,,,,,,,,,,0.290740741,0.187962963,1,0,0,image_3,0,39,39,27,1,862,The entire snake's head is completely visible and at the very top of the picture. ,H,0,3,MSR-VTT-videoTestVideo_video8040-shot1_1,Images/MSR-VTT-videoTestVideo_video8040-shot1_1/img130.jpg,Images/MSR-VTT-videoTestVideo_video8040-shot1_1/img136.jpg,Images/MSR-VTT-videoTestVideo_video8040-shot1_1/img145.jpg,Images/MSR-VTT-videoTestVideo_video8040-shot1_1/img152.jpg,Images/MSR-VTT-videoTestVideo_video8040-shot1_1/img165.jpg,Images/MSR-VTT-videoTestVideo_video8040-shot1_1/img177.jpg,Images/MSR-VTT-videoTestVideo_video8040-shot1_1/img182.jpg,Images/MSR-VTT-videoTestVideo_video8040-shot1_1/img186.jpg,Images/MSR-VTT-videoTestVideo_video8040-shot1_1/img190.jpg,Images/MSR-VTT-videoTestVideo_video8040-shot1_1/img192.jpg,106,30,0,2022-06-16_09h47.13.290,annotation,2021.2.3,Win32,143.9677512,,
,,,,,,,,,,,,,,,,,-0.224074074,0.143518519,1,0,0,image_1,0,40,40,5,1,569,The hand on the right side of the picture has the thumb at the upper corner of a red and white zig zag strip of the ribbon. ,H,0,1,MSR-VTT-videoTestVideo_video8212-shot1_4,Images/MSR-VTT-videoTestVideo_video8212-shot1_4/img274.jpg,Images/MSR-VTT-videoTestVideo_video8212-shot1_4/img281.jpg,Images/MSR-VTT-videoTestVideo_video8212-shot1_4/img283.jpg,Images/MSR-VTT-videoTestVideo_video8212-shot1_4/img284.jpg,Images/MSR-VTT-videoTestVideo_video8212-shot1_4/img287.jpg,Images/MSR-VTT-videoTestVideo_video8212-shot1_4/img298.jpg,Images/MSR-VTT-videoTestVideo_video8212-shot1_4/img302.jpg,Images/MSR-VTT-videoTestVideo_video8212-shot1_4/img304.jpg,Images/MSR-VTT-videoTestVideo_video8212-shot1_4/img306.jpg,Images/MSR-VTT-videoTestVideo_video8212-shot1_4/img308.jpg,1227,30,0,2022-06-16_09h47.13.290,annotation,2021.2.3,Win32,143.9677512,,
,,,,,,,,,,,,,,,,,0.248148148,0.147222222,1,0,0,image_3,0,41,41,39,1,825,The eyes are horizontally aligned with the package but slightly blurry,H,0,2,video-storytelling-videobirthday__amwPjAcoC8-shot13_2,Images/video-storytelling-videobirthday__amwPjAcoC8-shot13_2/img45.jpg,Images/video-storytelling-videobirthday__amwPjAcoC8-shot13_2/img47.jpg,Images/video-storytelling-videobirthday__amwPjAcoC8-shot13_2/img49.jpg,Images/video-storytelling-videobirthday__amwPjAcoC8-shot13_2/img50.jpg,Images/video-storytelling-videobirthday__amwPjAcoC8-shot13_2/img53.jpg,Images/video-storytelling-videobirthday__amwPjAcoC8-shot13_2/img58.jpg,Images/video-storytelling-videobirthday__amwPjAcoC8-shot13_2/img60.jpg,Images/video-storytelling-videobirthday__amwPjAcoC8-shot13_2/img61.jpg,Images/video-storytelling-videobirthday__amwPjAcoC8-shot13_2/img62.jpg,Images/video-storytelling-videobirthday__amwPjAcoC8-shot13_2/img64.jpg,1810,30,0,2022-06-16_09h47.13.290,annotation,2021.2.3,Win32,143.9677512,,
,,,,,,,,,,,,,,,,,0.032407407,0.19537037,1,0,0,image_2,0,42,42,61,1,3,A grey elephant with golden leaves on it. ,H,,2,open-images-1745_0ed62fe71809b2f5,Checks/check4/open-images-2609_3f72daeb23764ecfimg6.jpg,Checks/check4/open-images-1928_60679e2899870e08img1.jpg,Checks/check4/open-images-1745_0ed62fe71809b2f5img2.jpg,Checks/check4/open-images-1811_9ae6351c7f7565edimg0.jpg,Checks/check4/open-images-1721_6f04da11945ea492img3.jpg,Checks/check4/open-images-1907_5f9be3e4ea5e22c7img2.jpg,Checks/check4/open-images-580_0ddffb9c25141999img1.jpg,Checks/check4/open-images-2924_0645dcbcf998fed9img3.jpg,Checks/check4/open-images-869_856ecbcb5faf76e3img8.jpg,Checks/check4/open-images-250_02039517e63a91fbimg1.jpg,,,1,2022-06-16_09h47.13.290,annotation,2021.2.3,Win32,143.9677512,,
,,,,,,,,,,,,,,,,,-0.443518519,0.171296296,1,0,0,image_0,0,43,43,1,1,1845,A woman standing next to a man in a room.,M,0,5,video-storytelling-videowedding_46xhFCXBMJs-shot34_1,Images/video-storytelling-videowedding_46xhFCXBMJs-shot34_1/img51.jpg,Images/video-storytelling-videowedding_46xhFCXBMJs-shot34_1/img53.jpg,Images/video-storytelling-videowedding_46xhFCXBMJs-shot34_1/img55.jpg,Images/video-storytelling-videowedding_46xhFCXBMJs-shot34_1/img57.jpg,Images/video-storytelling-videowedding_46xhFCXBMJs-shot34_1/img59.jpg,Images/video-storytelling-videowedding_46xhFCXBMJs-shot34_1/img64.jpg,Images/video-storytelling-videowedding_46xhFCXBMJs-shot34_1/img66.jpg,Images/video-storytelling-videowedding_46xhFCXBMJs-shot34_1/img70.jpg,Images/video-storytelling-videowedding_46xhFCXBMJs-shot34_1/img78.jpg,Images/video-storytelling-videowedding_46xhFCXBMJs-shot34_1/img86.jpg,774,30,0,2022-06-16_09h47.13.290,annotation,2021.2.3,Win32,143.9677512,,
,,,,,,,,,,,,,,,,,-0.512037037,-0.12037037,1,0,0,image_5,0,44,44,10,1,1550,A couple of dogs sitting next to each other in front of a screen.,M,0,5,MSR-VTT-videoTestVideo_video8385-shot1_0,Images/MSR-VTT-videoTestVideo_video8385-shot1_0/img3.jpg,Images/MSR-VTT-videoTestVideo_video8385-shot1_0/img11.jpg,Images/MSR-VTT-videoTestVideo_video8385-shot1_0/img13.jpg,Images/MSR-VTT-videoTestVideo_video8385-shot1_0/img31.jpg,Images/MSR-VTT-videoTestVideo_video8385-shot1_0/img32.jpg,Images/MSR-VTT-videoTestVideo_video8385-shot1_0/img66.jpg,Images/MSR-VTT-videoTestVideo_video8385-shot1_0/img82.jpg,Images/MSR-VTT-videoTestVideo_video8385-shot1_0/img177.jpg,Images/MSR-VTT-videoTestVideo_video8385-shot1_0/img286.jpg,Images/MSR-VTT-videoTestVideo_video8385-shot1_0/img292.jpg,32,30,0,2022-06-16_09h47.13.290,annotation,2021.2.3,Win32,143.9677512,,
,,,,,,,,,,,,,,,,,-0.47037037,-0.12037037,1,0,0,image_5,0,45,45,38,1,576,The table like object that has a green base is gone from the image.  A tree with little purple flowers is seen on the far left of the image. ,H,0,8,MSR-VTT-videoTestVideo_video8203-shot1_2,Images/MSR-VTT-videoTestVideo_video8203-shot1_2/img109.jpg,Images/MSR-VTT-videoTestVideo_video8203-shot1_2/img112.jpg,Images/MSR-VTT-videoTestVideo_video8203-shot1_2/img116.jpg,Images/MSR-VTT-videoTestVideo_video8203-shot1_2/img120.jpg,Images/MSR-VTT-videoTestVideo_video8203-shot1_2/img123.jpg,Images/MSR-VTT-videoTestVideo_video8203-shot1_2/img133.jpg,Images/MSR-VTT-videoTestVideo_video8203-shot1_2/img141.jpg,Images/MSR-VTT-videoTestVideo_video8203-shot1_2/img150.jpg,Images/MSR-VTT-videoTestVideo_video8203-shot1_2/img160.jpg,Images/MSR-VTT-videoTestVideo_video8203-shot1_2/img188.jpg,1912,30,0,2022-06-16_09h47.13.290,annotation,2021.2.3,Win32,143.9677512,,
,,,,,,,,,,,,,,,,,0.553703704,0.182407407,1,0,0,image_4,0,46,46,13,1,342,The scene of the beach with the blue house is clear without any fading.,H,1,4,MSR-VTT-videoTestVideo_video9899-shot1_0,Images/MSR-VTT-videoTestVideo_video9899-shot1_0/img0.jpg,Images/MSR-VTT-videoTestVideo_video9899-shot1_0/img7.jpg,Images/MSR-VTT-videoTestVideo_video9899-shot1_0/img14.jpg,Images/MSR-VTT-videoTestVideo_video9899-shot1_0/img17.jpg,Images/MSR-VTT-videoTestVideo_video9899-shot1_0/img22.jpg,Images/MSR-VTT-videoTestVideo_video9899-shot1_0/img94.jpg,Images/MSR-VTT-videoTestVideo_video9899-shot1_0/img98.jpg,Images/MSR-VTT-videoTestVideo_video9899-shot1_0/img99.jpg,Images/MSR-VTT-videoTestVideo_video9899-shot1_0/img101.jpg,Images/MSR-VTT-videoTestVideo_video9899-shot1_0/img102.jpg,1232,30,0,2022-06-16_09h47.13.290,annotation,2021.2.3,Win32,143.9677512,,
,,,,,,,,,,,,,,,,,0.302777778,-0.126851852,1,0,0,image_8,0,47,47,35,1,382,The man has the small glass raised to his mouth. His face is facing to the left side of the image. He is not drinking it and has his mouth and eyes closed.,H,0,8,MSR-VTT-videoTestVideo_video7726-shot3_0,Images/MSR-VTT-videoTestVideo_video7726-shot3_0/img1.jpg,Images/MSR-VTT-videoTestVideo_video7726-shot3_0/img4.jpg,Images/MSR-VTT-videoTestVideo_video7726-shot3_0/img6.jpg,Images/MSR-VTT-videoTestVideo_video7726-shot3_0/img9.jpg,Images/MSR-VTT-videoTestVideo_video7726-shot3_0/img11.jpg,Images/MSR-VTT-videoTestVideo_video7726-shot3_0/img16.jpg,Images/MSR-VTT-videoTestVideo_video7726-shot3_0/img21.jpg,Images/MSR-VTT-videoTestVideo_video7726-shot3_0/img34.jpg,Images/MSR-VTT-videoTestVideo_video7726-shot3_0/img46.jpg,Images/MSR-VTT-videoTestVideo_video7726-shot3_0/img48.jpg,557,30,0,2022-06-16_09h47.13.290,annotation,2021.2.3,Win32,143.9677512,,
,,,,,,,,,,,,,,,,,0.026851852,-0.144444444,1,0,0,image_7,0,48,48,11,1,416,3 fingers and a black x-striped shape is visible from a hand on the left.,H,0,7,video-storytelling-videobirthday__amwPjAcoC8-shot80_5,Images/video-storytelling-videobirthday__amwPjAcoC8-shot80_5/img277.jpg,Images/video-storytelling-videobirthday__amwPjAcoC8-shot80_5/img290.jpg,Images/video-storytelling-videobirthday__amwPjAcoC8-shot80_5/img292.jpg,Images/video-storytelling-videobirthday__amwPjAcoC8-shot80_5/img293.jpg,Images/video-storytelling-videobirthday__amwPjAcoC8-shot80_5/img297.jpg,Images/video-storytelling-videobirthday__amwPjAcoC8-shot80_5/img298.jpg,Images/video-storytelling-videobirthday__amwPjAcoC8-shot80_5/img300.jpg,Images/video-storytelling-videobirthday__amwPjAcoC8-shot80_5/img301.jpg,Images/video-storytelling-videobirthday__amwPjAcoC8-shot80_5/img303.jpg,Images/video-storytelling-videobirthday__amwPjAcoC8-shot80_5/img304.jpg,837,30,0,2022-06-16_09h47.13.290,annotation,2021.2.3,Win32,143.9677512,,
,,,,,,,,,,,,,,,,,-0.461111111,-0.07962963,1,0,0,image_5,0,49,49,55,1,1628,A couple of people standing next to each other on a beach.,M,0,1,MSR-VTT-videoTestVideo_video7041-shot0_3,Images/MSR-VTT-videoTestVideo_video7041-shot0_3/img59.jpg,Images/MSR-VTT-videoTestVideo_video7041-shot0_3/img60.jpg,Images/MSR-VTT-videoTestVideo_video7041-shot0_3/img63.jpg,Images/MSR-VTT-videoTestVideo_video7041-shot0_3/img66.jpg,Images/MSR-VTT-videoTestVideo_video7041-shot0_3/img68.jpg,Images/MSR-VTT-videoTestVideo_video7041-shot0_3/img72.jpg,Images/MSR-VTT-videoTestVideo_video7041-shot0_3/img75.jpg,Images/MSR-VTT-videoTestVideo_video7041-shot0_3/img78.jpg,Images/MSR-VTT-videoTestVideo_video7041-shot0_3/img83.jpg,Images/MSR-VTT-videoTestVideo_video7041-shot0_3/img84.jpg,1585,30,0,2022-06-16_09h47.13.290,annotation,2021.2.3,Win32,143.9677512,,
,,,,,,,,,,,,,,,,,-0.47037037,-0.194444444,1,0,0,image_5,0,50,50,19,1,853,The woman's hands are both extended in front of her at chin height and she is looking directly at the camera.,H,0,5,MSR-VTT-videoTestVideo_video8364-shot1_1,Images/MSR-VTT-videoTestVideo_video8364-shot1_1/img38.jpg,Images/MSR-VTT-videoTestVideo_video8364-shot1_1/img42.jpg,Images/MSR-VTT-videoTestVideo_video8364-shot1_1/img54.jpg,Images/MSR-VTT-videoTestVideo_video8364-shot1_1/img71.jpg,Images/MSR-VTT-videoTestVideo_video8364-shot1_1/img79.jpg,Images/MSR-VTT-videoTestVideo_video8364-shot1_1/img84.jpg,Images/MSR-VTT-videoTestVideo_video8364-shot1_1/img91.jpg,Images/MSR-VTT-videoTestVideo_video8364-shot1_1/img110.jpg,Images/MSR-VTT-videoTestVideo_video8364-shot1_1/img133.jpg,Images/MSR-VTT-videoTestVideo_video8364-shot1_1/img147.jpg,1037,30,0,2022-06-16_09h47.13.290,annotation,2021.2.3,Win32,143.9677512,,
,,,,,,,,,,,,,,,,,0.467592593,-0.113888889,1,0,0,image_9,0,51,51,46,1,1054,A man sitting next to a woman on a bed.,M,0,7,MSR-VTT-videoTestVideo_video7041-shot1_1,Images/MSR-VTT-videoTestVideo_video7041-shot1_1/img59.jpg,Images/MSR-VTT-videoTestVideo_video7041-shot1_1/img62.jpg,Images/MSR-VTT-videoTestVideo_video7041-shot1_1/img72.jpg,Images/MSR-VTT-videoTestVideo_video7041-shot1_1/img74.jpg,Images/MSR-VTT-videoTestVideo_video7041-shot1_1/img77.jpg,Images/MSR-VTT-videoTestVideo_video7041-shot1_1/img84.jpg,Images/MSR-VTT-videoTestVideo_video7041-shot1_1/img92.jpg,Images/MSR-VTT-videoTestVideo_video7041-shot1_1/img97.jpg,Images/MSR-VTT-videoTestVideo_video7041-shot1_1/img99.jpg,Images/MSR-VTT-videoTestVideo_video7041-shot1_1/img108.jpg,1694,30,0,2022-06-16_09h47.13.290,annotation,2021.2.3,Win32,143.9677512,,
,,,,,,,,,,,,,,,,,-0.444444444,-0.087037037,1,0,0,image_5,0,52,52,22,1,1269,A close up of a dog that is in a swimming pool.,M,1,2,MSR-VTT-videoTestVideo_video7038-shot6_0,Images/MSR-VTT-videoTestVideo_video7038-shot6_0/img0.jpg,Images/MSR-VTT-videoTestVideo_video7038-shot6_0/img2.jpg,Images/MSR-VTT-videoTestVideo_video7038-shot6_0/img15.jpg,Images/MSR-VTT-videoTestVideo_video7038-shot6_0/img41.jpg,Images/MSR-VTT-videoTestVideo_video7038-shot6_0/img52.jpg,Images/MSR-VTT-videoTestVideo_video7038-shot6_0/img55.jpg,Images/MSR-VTT-videoTestVideo_video7038-shot6_0/img58.jpg,Images/MSR-VTT-videoTestVideo_video7038-shot6_0/img62.jpg,Images/MSR-VTT-videoTestVideo_video7038-shot6_0/img63.jpg,Images/MSR-VTT-videoTestVideo_video7038-shot6_0/img80.jpg,657,30,0,2022-06-16_09h47.13.290,annotation,2021.2.3,Win32,143.9677512,,
,,,,,,,,,,,,,,,,,0.473148148,-0.141666667,1,0,0,image_9,0,53,53,9,1,1903,A woman is standing on top of a bed.,M,0,9,video-storytelling-videobirthday_fwpYnUDbusw-shot66_5,Images/video-storytelling-videobirthday_fwpYnUDbusw-shot66_5/img253.jpg,Images/video-storytelling-videobirthday_fwpYnUDbusw-shot66_5/img261.jpg,Images/video-storytelling-videobirthday_fwpYnUDbusw-shot66_5/img268.jpg,Images/video-storytelling-videobirthday_fwpYnUDbusw-shot66_5/img277.jpg,Images/video-storytelling-videobirthday_fwpYnUDbusw-shot66_5/img289.jpg,Images/video-storytelling-videobirthday_fwpYnUDbusw-shot66_5/img294.jpg,Images/video-storytelling-videobirthday_fwpYnUDbusw-shot66_5/img299.jpg,Images/video-storytelling-videobirthday_fwpYnUDbusw-shot66_5/img317.jpg,Images/video-storytelling-videobirthday_fwpYnUDbusw-shot66_5/img336.jpg,Images/video-storytelling-videobirthday_fwpYnUDbusw-shot66_5/img347.jpg,1242,30,0,2022-06-16_09h47.13.290,annotation,2021.2.3,Win32,143.9677512,,
,,,,,,,,,,,,,,,,,0.52962963,-0.155555556,1,0,0,image_9,0,54,54,49,1,846,The picture is brighter.  The boy is smiling and you can see both his top and bottom teeth.  You can't see any hands. ,H,0,9,video-storytelling-videobirthday__amwPjAcoC8-shot11_1,Images/video-storytelling-videobirthday__amwPjAcoC8-shot11_1/img35.jpg,Images/video-storytelling-videobirthday__amwPjAcoC8-shot11_1/img41.jpg,Images/video-storytelling-videobirthday__amwPjAcoC8-shot11_1/img46.jpg,Images/video-storytelling-videobirthday__amwPjAcoC8-shot11_1/img56.jpg,Images/video-storytelling-videobirthday__amwPjAcoC8-shot11_1/img101.jpg,Images/video-storytelling-videobirthday__amwPjAcoC8-shot11_1/img112.jpg,Images/video-storytelling-videobirthday__amwPjAcoC8-shot11_1/img118.jpg,Images/video-storytelling-videobirthday__amwPjAcoC8-shot11_1/img120.jpg,Images/video-storytelling-videobirthday__amwPjAcoC8-shot11_1/img121.jpg,Images/video-storytelling-videobirthday__amwPjAcoC8-shot11_1/img125.jpg,1491,30,0,2022-06-16_09h47.13.290,annotation,2021.2.3,Win32,143.9677512,,
,,,,,,,,,,,,,,,,,0.515740741,-0.162962963,1,0,0,image_9,0,55,55,60,1,2,Green type writer with a red tape. ,H,,9,open-images-531_0dd4eb59d465a8be,Checks/check3/open-images-503_1ccd6fa641154ebbimg7.jpg,Checks/check3/open-images-1852_00faf52058ad28b8img4.jpg,Checks/check3/open-images-386_1b2e28d6d994603eimg1.jpg,Checks/check3/open-images-471_1121e9f97c200ac0img8.jpg,Checks/check3/open-images-1886_3db71eaddb618934img8.jpg,Checks/check3/open-images-1696_20a4ebf0c0f76b05img6.jpg,Checks/check3/open-images-2447_128483a48e1552f4img6.jpg,Checks/check3/open-images-2994_9965cbf8aa20bda0img2.jpg,Checks/check3/open-images-1068_03d63613107970b3img6.jpg,Checks/check3/open-images-531_0dd4eb59d465a8beimg9.jpg,,,1,2022-06-16_09h47.13.290,annotation,2021.2.3,Win32,143.9677512,,
,,,,,,,,,,,,,,,,,-0.492592593,0.110185185,1,0,0,image_0,0,56,56,40,1,1296,A person using a bowl to cook a piece of cake.,M,1,5,YouCook-video0063-shot15_4,Images/YouCook-video0063-shot15_4/img174.jpg,Images/YouCook-video0063-shot15_4/img179.jpg,Images/YouCook-video0063-shot15_4/img180.jpg,Images/YouCook-video0063-shot15_4/img186.jpg,Images/YouCook-video0063-shot15_4/img188.jpg,Images/YouCook-video0063-shot15_4/img190.jpg,Images/YouCook-video0063-shot15_4/img196.jpg,Images/YouCook-video0063-shot15_4/img201.jpg,Images/YouCook-video0063-shot15_4/img203.jpg,Images/YouCook-video0063-shot15_4/img208.jpg,750,30,0,2022-06-16_09h47.13.290,annotation,2021.2.3,Win32,143.9677512,,
,,,,,,,,,,,,,,,,,0.501851852,0.108333333,1,0,0,image_4,0,57,57,29,1,585,A child with an orange and brown costume has a bat against the left side of a backpack on a larger person in a costume. The child's right hand is open and is reaching towards the left side of the butt of the larger person.,H,0,4,video-storytelling-videobirthday__amwPjAcoC8-shot1_2,Images/video-storytelling-videobirthday__amwPjAcoC8-shot1_2/img39.jpg,Images/video-storytelling-videobirthday__amwPjAcoC8-shot1_2/img41.jpg,Images/video-storytelling-videobirthday__amwPjAcoC8-shot1_2/img43.jpg,Images/video-storytelling-videobirthday__amwPjAcoC8-shot1_2/img44.jpg,Images/video-storytelling-videobirthday__amwPjAcoC8-shot1_2/img46.jpg,Images/video-storytelling-videobirthday__amwPjAcoC8-shot1_2/img49.jpg,Images/video-storytelling-videobirthday__amwPjAcoC8-shot1_2/img51.jpg,Images/video-storytelling-videobirthday__amwPjAcoC8-shot1_2/img55.jpg,Images/video-storytelling-videobirthday__amwPjAcoC8-shot1_2/img56.jpg,Images/video-storytelling-videobirthday__amwPjAcoC8-shot1_2/img58.jpg,980,30,0,2022-06-16_09h47.13.290,annotation,2021.2.3,Win32,143.9677512,,
,,,,,,,,,,,,,,,,,-0.206481481,-0.090740741,1,0,0,image_6,0,58,58,41,1,363,"The person's head isn't visible above his ears, roughly",H,0,0,video-storytelling-videocamping_dBXYM3dQTSo-shot81_0,Images/video-storytelling-videocamping_dBXYM3dQTSo-shot81_0/img0.jpg,Images/video-storytelling-videocamping_dBXYM3dQTSo-shot81_0/img11.jpg,Images/video-storytelling-videocamping_dBXYM3dQTSo-shot81_0/img23.jpg,Images/video-storytelling-videocamping_dBXYM3dQTSo-shot81_0/img27.jpg,Images/video-storytelling-videocamping_dBXYM3dQTSo-shot81_0/img29.jpg,Images/video-storytelling-videocamping_dBXYM3dQTSo-shot81_0/img32.jpg,Images/video-storytelling-videocamping_dBXYM3dQTSo-shot81_0/img35.jpg,Images/video-storytelling-videocamping_dBXYM3dQTSo-shot81_0/img38.jpg,Images/video-storytelling-videocamping_dBXYM3dQTSo-shot81_0/img50.jpg,Images/video-storytelling-videocamping_dBXYM3dQTSo-shot81_0/img57.jpg,310,30,0,2022-06-16_09h47.13.290,annotation,2021.2.3,Win32,143.9677512,,
,,,,,,,,,,,,,,,,,0.515740741,0.092592593,1,0,0,image_4,0,59,59,14,1,997,"The man is facing left with his eyes closed. Under the chart on the screen, you can see blue on his shirt and orange under that.",H,1,4,MSR-VTT-videoTestVideo_video9003-shot1_1,Images/MSR-VTT-videoTestVideo_video9003-shot1_1/img28.jpg,Images/MSR-VTT-videoTestVideo_video9003-shot1_1/img34.jpg,Images/MSR-VTT-videoTestVideo_video9003-shot1_1/img37.jpg,Images/MSR-VTT-videoTestVideo_video9003-shot1_1/img41.jpg,Images/MSR-VTT-videoTestVideo_video9003-shot1_1/img43.jpg,Images/MSR-VTT-videoTestVideo_video9003-shot1_1/img45.jpg,Images/MSR-VTT-videoTestVideo_video9003-shot1_1/img46.jpg,Images/MSR-VTT-videoTestVideo_video9003-shot1_1/img47.jpg,Images/MSR-VTT-videoTestVideo_video9003-shot1_1/img48.jpg,Images/MSR-VTT-videoTestVideo_video9003-shot1_1/img49.jpg,492,30,0,2022-06-16_09h47.13.290,annotation,2021.2.3,Win32,143.9677512,,
,,,,,,,,,,,,,,,,,0.55,-0.128703704,1,0,0,image_9,0,60,60,31,1,1207,A close up of a car that is parked on the side of a road.,M,0,3,MSR-VTT-videoTestVideo_video7820-shot1_1,Images/MSR-VTT-videoTestVideo_video7820-shot1_1/img29.jpg,Images/MSR-VTT-videoTestVideo_video7820-shot1_1/img33.jpg,Images/MSR-VTT-videoTestVideo_video7820-shot1_1/img40.jpg,Images/MSR-VTT-videoTestVideo_video7820-shot1_1/img45.jpg,Images/MSR-VTT-videoTestVideo_video7820-shot1_1/img48.jpg,Images/MSR-VTT-videoTestVideo_video7820-shot1_1/img55.jpg,Images/MSR-VTT-videoTestVideo_video7820-shot1_1/img92.jpg,Images/MSR-VTT-videoTestVideo_video7820-shot1_1/img104.jpg,Images/MSR-VTT-videoTestVideo_video7820-shot1_1/img116.jpg,Images/MSR-VTT-videoTestVideo_video7820-shot1_1/img129.jpg,963,30,0,2022-06-16_09h47.13.290,annotation,2021.2.3,Win32,143.9677512,,
,,,,,,,,,,,,,,,,,-0.464814815,-0.14537037,1,0,0,image_5,0,61,61,23,1,773,"The woman's teeth are touching each other, her head is straight, and you can see the black bath robe above her shoulder.",H,0,5,MSR-VTT-videoTestVideo_video8904-shot1_1,Images/MSR-VTT-videoTestVideo_video8904-shot1_1/img67.jpg,Images/MSR-VTT-videoTestVideo_video8904-shot1_1/img86.jpg,Images/MSR-VTT-videoTestVideo_video8904-shot1_1/img92.jpg,Images/MSR-VTT-videoTestVideo_video8904-shot1_1/img120.jpg,Images/MSR-VTT-videoTestVideo_video8904-shot1_1/img123.jpg,Images/MSR-VTT-videoTestVideo_video8904-shot1_1/img128.jpg,Images/MSR-VTT-videoTestVideo_video8904-shot1_1/img147.jpg,Images/MSR-VTT-videoTestVideo_video8904-shot1_1/img157.jpg,Images/MSR-VTT-videoTestVideo_video8904-shot1_1/img161.jpg,Images/MSR-VTT-videoTestVideo_video8904-shot1_1/img168.jpg,1836,30,0,2022-06-16_09h47.13.290,annotation,2021.2.3,Win32,143.9677512,,
,,,,,,,,,,,,,,,,,0.031481481,-0.122222222,1,0,0,image_7,0,62,62,21,1,905,"There neck of the girl in orange is right against the right side, there is no space between her neck and the edge.",H,0,7,MSR-VTT-videoTestVideo_video7041-shot0_5,Images/MSR-VTT-videoTestVideo_video7041-shot0_5/img102.jpg,Images/MSR-VTT-videoTestVideo_video7041-shot0_5/img104.jpg,Images/MSR-VTT-videoTestVideo_video7041-shot0_5/img105.jpg,Images/MSR-VTT-videoTestVideo_video7041-shot0_5/img106.jpg,Images/MSR-VTT-videoTestVideo_video7041-shot0_5/img107.jpg,Images/MSR-VTT-videoTestVideo_video7041-shot0_5/img108.jpg,Images/MSR-VTT-videoTestVideo_video7041-shot0_5/img109.jpg,Images/MSR-VTT-videoTestVideo_video7041-shot0_5/img110.jpg,Images/MSR-VTT-videoTestVideo_video7041-shot0_5/img111.jpg,Images/MSR-VTT-videoTestVideo_video7041-shot0_5/img112.jpg,484,30,0,2022-06-16_09h47.13.290,annotation,2021.2.3,Win32,143.9677512,,
,,,,,,,,,,,,,,,,,,,,,,,,,,,,,,,,,,,,,,,,,,,,,,,2022-06-16_09h47.13.290,annotation,2021.2.3,Win32,143.9677512,space,23.0577
