mturk,key_resp_2.keys,key_resp_2.rt,key_resp_3.keys,key_resp_3.rt,mouse_2.x,mouse_2.y,mouse_2.leftButton,mouse_2.midButton,mouse_2.rightButton,mouse_2.clicked_name,key_resp_5.keys,key_resp_5.rt,key_resp.keys,key_resp.rt,key_resp_6.keys,key_resp_6.rt,mouse.x,mouse.y,mouse.leftButton,mouse.midButton,mouse.rightButton,mouse.time,mouse.clicked_name,trials.thisRepN,trials.thisTrialN,trials.thisN,trials.thisIndex,trials.ran,N,caption,class_caption,model_guessed,target_idx,image_set,img1,img2,img3,img4,img5,img6,img7,img8,img9,img10,Q_id,block,is_check,date,expName,psychopyVersion,OS,frameRate,key_resp_7.keys,key_resp_7.rt
9277293,space,7.7363,space,5.8287,0.27962963,0.125925926,1,0,0,ex4,space,4.2328,space,9.1162,space,0.9631,-0.458333333,0.09537037,1,0,0,64.0675,image_0,0,0,0,48,1,197,her arm is up and the visible half of her face shows an open mouth and part of her eye,H,0,3,MSR-VTT-videoTestVideo_video8630-shot1_3,Images/MSR-VTT-videoTestVideo_video8630-shot1_3/img188.jpg,Images/MSR-VTT-videoTestVideo_video8630-shot1_3/img189.jpg,Images/MSR-VTT-videoTestVideo_video8630-shot1_3/img191.jpg,Images/MSR-VTT-videoTestVideo_video8630-shot1_3/img193.jpg,Images/MSR-VTT-videoTestVideo_video8630-shot1_3/img196.jpg,Images/MSR-VTT-videoTestVideo_video8630-shot1_3/img200.jpg,Images/MSR-VTT-videoTestVideo_video8630-shot1_3/img202.jpg,Images/MSR-VTT-videoTestVideo_video8630-shot1_3/img206.jpg,Images/MSR-VTT-videoTestVideo_video8630-shot1_3/img213.jpg,Images/MSR-VTT-videoTestVideo_video8630-shot1_3/img220.jpg,546,18,0,2022-06-18_11h47.42.182,annotation,2021.2.3,Win32,60.0024001,,
,,,,,,,,,,,,,,,,,0.487962963,0.128703704,1,0,0,17.5002,image_4,0,1,1,11,1,566,You can just start to see the teeth of the woman coming in from the right. You can only see one eye clearly. ,H,0,4,video-storytelling-videocamping_dBXYM3dQTSo-shot74_0,Images/video-storytelling-videocamping_dBXYM3dQTSo-shot74_0/img0.jpg,Images/video-storytelling-videocamping_dBXYM3dQTSo-shot74_0/img3.jpg,Images/video-storytelling-videocamping_dBXYM3dQTSo-shot74_0/img5.jpg,Images/video-storytelling-videocamping_dBXYM3dQTSo-shot74_0/img6.jpg,Images/video-storytelling-videocamping_dBXYM3dQTSo-shot74_0/img7.jpg,Images/video-storytelling-videocamping_dBXYM3dQTSo-shot74_0/img8.jpg,Images/video-storytelling-videocamping_dBXYM3dQTSo-shot74_0/img9.jpg,Images/video-storytelling-videocamping_dBXYM3dQTSo-shot74_0/img10.jpg,Images/video-storytelling-videocamping_dBXYM3dQTSo-shot74_0/img12.jpg,Images/video-storytelling-videocamping_dBXYM3dQTSo-shot74_0/img15.jpg,635,18,0,2022-06-18_11h47.42.182,annotation,2021.2.3,Win32,60.0024001,,
,,,,,,,,,,,,,,,,,-0.227777778,-0.141666667,1,0,0,22.8503,image_6,0,2,2,32,1,473,he is looking to the left side of the image with his mouth wide open,H,0,6,MSR-VTT-videoTestVideo_video8721-shot1_1,Images/MSR-VTT-videoTestVideo_video8721-shot1_1/img185.jpg,Images/MSR-VTT-videoTestVideo_video8721-shot1_1/img227.jpg,Images/MSR-VTT-videoTestVideo_video8721-shot1_1/img234.jpg,Images/MSR-VTT-videoTestVideo_video8721-shot1_1/img250.jpg,Images/MSR-VTT-videoTestVideo_video8721-shot1_1/img255.jpg,Images/MSR-VTT-videoTestVideo_video8721-shot1_1/img300.jpg,Images/MSR-VTT-videoTestVideo_video8721-shot1_1/img307.jpg,Images/MSR-VTT-videoTestVideo_video8721-shot1_1/img345.jpg,Images/MSR-VTT-videoTestVideo_video8721-shot1_1/img360.jpg,Images/MSR-VTT-videoTestVideo_video8721-shot1_1/img380.jpg,865,18,0,2022-06-18_11h47.42.182,annotation,2021.2.3,Win32,60.0024001,,
,,,,,,,,,,,,,,,,,-0.223148148,-0.121296296,1,0,0,21.4,image_6,0,3,3,50,1,537,It looks like the wrestler in black is sitting on the other wrestler with his arms held out and away from his body. ,H,0,6,MSR-VTT-videoTestVideo_video7286-shot1_0,Images/MSR-VTT-videoTestVideo_video7286-shot1_0/img0.jpg,Images/MSR-VTT-videoTestVideo_video7286-shot1_0/img6.jpg,Images/MSR-VTT-videoTestVideo_video7286-shot1_0/img12.jpg,Images/MSR-VTT-videoTestVideo_video7286-shot1_0/img40.jpg,Images/MSR-VTT-videoTestVideo_video7286-shot1_0/img75.jpg,Images/MSR-VTT-videoTestVideo_video7286-shot1_0/img81.jpg,Images/MSR-VTT-videoTestVideo_video7286-shot1_0/img85.jpg,Images/MSR-VTT-videoTestVideo_video7286-shot1_0/img92.jpg,Images/MSR-VTT-videoTestVideo_video7286-shot1_0/img102.jpg,Images/MSR-VTT-videoTestVideo_video7286-shot1_0/img105.jpg,102,18,0,2022-06-18_11h47.42.182,annotation,2021.2.3,Win32,60.0024001,,
,,,,,,,,,,,,,,,,,-0.224074074,0.087037037,1,0,0,84.1836,image_1,0,4,4,14,1,1729,A couple of people standing next to each other.,M,1,7,MSR-VTT-videoTestVideo_video7485-shot2_1,Images/MSR-VTT-videoTestVideo_video7485-shot2_1/img44.jpg,Images/MSR-VTT-videoTestVideo_video7485-shot2_1/img45.jpg,Images/MSR-VTT-videoTestVideo_video7485-shot2_1/img55.jpg,Images/MSR-VTT-videoTestVideo_video7485-shot2_1/img65.jpg,Images/MSR-VTT-videoTestVideo_video7485-shot2_1/img71.jpg,Images/MSR-VTT-videoTestVideo_video7485-shot2_1/img80.jpg,Images/MSR-VTT-videoTestVideo_video7485-shot2_1/img84.jpg,Images/MSR-VTT-videoTestVideo_video7485-shot2_1/img87.jpg,Images/MSR-VTT-videoTestVideo_video7485-shot2_1/img92.jpg,Images/MSR-VTT-videoTestVideo_video7485-shot2_1/img96.jpg,183,18,0,2022-06-18_11h47.42.182,annotation,2021.2.3,Win32,60.0024001,,
,,,,,,,,,,,,,,,,,0.269444444,0.103703704,1,0,0,24.7502,image_3,0,5,5,16,1,953,The long couch in the middle right hand part of the picture is almost entirely visible with just  the very right tip cut off. ,H,0,3,MSR-VTT-videoTestVideo_video8441-shot1_3,Images/MSR-VTT-videoTestVideo_video8441-shot1_3/img134.jpg,Images/MSR-VTT-videoTestVideo_video8441-shot1_3/img137.jpg,Images/MSR-VTT-videoTestVideo_video8441-shot1_3/img155.jpg,Images/MSR-VTT-videoTestVideo_video8441-shot1_3/img163.jpg,Images/MSR-VTT-videoTestVideo_video8441-shot1_3/img164.jpg,Images/MSR-VTT-videoTestVideo_video8441-shot1_3/img166.jpg,Images/MSR-VTT-videoTestVideo_video8441-shot1_3/img172.jpg,Images/MSR-VTT-videoTestVideo_video8441-shot1_3/img173.jpg,Images/MSR-VTT-videoTestVideo_video8441-shot1_3/img174.jpg,Images/MSR-VTT-videoTestVideo_video8441-shot1_3/img175.jpg,1348,18,0,2022-06-18_11h47.42.182,annotation,2021.2.3,Win32,60.0024001,,
,,,,,,,,,,,,,,,,,-0.466666667,0.116666667,1,0,0,25.0501,image_0,0,6,6,21,1,1804,A police officer standing next to a cop car.,M,0,9,MSR-VTT-videoTestVideo_video8691-shot1_1,Images/MSR-VTT-videoTestVideo_video8691-shot1_1/img113.jpg,Images/MSR-VTT-videoTestVideo_video8691-shot1_1/img117.jpg,Images/MSR-VTT-videoTestVideo_video8691-shot1_1/img120.jpg,Images/MSR-VTT-videoTestVideo_video8691-shot1_1/img124.jpg,Images/MSR-VTT-videoTestVideo_video8691-shot1_1/img130.jpg,Images/MSR-VTT-videoTestVideo_video8691-shot1_1/img141.jpg,Images/MSR-VTT-videoTestVideo_video8691-shot1_1/img148.jpg,Images/MSR-VTT-videoTestVideo_video8691-shot1_1/img154.jpg,Images/MSR-VTT-videoTestVideo_video8691-shot1_1/img163.jpg,Images/MSR-VTT-videoTestVideo_video8691-shot1_1/img175.jpg,1357,18,0,2022-06-18_11h47.42.182,annotation,2021.2.3,Win32,60.0024001,,
,,,,,,,,,,,,,,,,,-0.267592593,0.097222222,1,0,0,34.2335,image_1,0,7,7,28,1,1577,There is a large amount of water in the air.,M,0,3,video-storytelling-videowedding_46xhFCXBMJs-shot39_0,Images/video-storytelling-videowedding_46xhFCXBMJs-shot39_0/img0.jpg,Images/video-storytelling-videowedding_46xhFCXBMJs-shot39_0/img23.jpg,Images/video-storytelling-videowedding_46xhFCXBMJs-shot39_0/img59.jpg,Images/video-storytelling-videowedding_46xhFCXBMJs-shot39_0/img83.jpg,Images/video-storytelling-videowedding_46xhFCXBMJs-shot39_0/img96.jpg,Images/video-storytelling-videowedding_46xhFCXBMJs-shot39_0/img101.jpg,Images/video-storytelling-videowedding_46xhFCXBMJs-shot39_0/img120.jpg,Images/video-storytelling-videowedding_46xhFCXBMJs-shot39_0/img125.jpg,Images/video-storytelling-videowedding_46xhFCXBMJs-shot39_0/img129.jpg,Images/video-storytelling-videowedding_46xhFCXBMJs-shot39_0/img135.jpg,1228,18,0,2022-06-18_11h47.42.182,annotation,2021.2.3,Win32,60.0024001,,
,,,,,,,,,,,,,,,,,0.00462963,0.125,1,0,0,10.2667,image_2,0,8,8,61,1,3,A grey elephant with golden leaves on it. ,H,,2,open-images-1745_0ed62fe71809b2f5,Checks/check4/open-images-2609_3f72daeb23764ecfimg6.jpg,Checks/check4/open-images-1928_60679e2899870e08img1.jpg,Checks/check4/open-images-1745_0ed62fe71809b2f5img2.jpg,Checks/check4/open-images-1811_9ae6351c7f7565edimg0.jpg,Checks/check4/open-images-1721_6f04da11945ea492img3.jpg,Checks/check4/open-images-1907_5f9be3e4ea5e22c7img2.jpg,Checks/check4/open-images-580_0ddffb9c25141999img1.jpg,Checks/check4/open-images-2924_0645dcbcf998fed9img3.jpg,Checks/check4/open-images-869_856ecbcb5faf76e3img8.jpg,Checks/check4/open-images-250_02039517e63a91fbimg1.jpg,,,1,2022-06-18_11h47.42.182,annotation,2021.2.3,Win32,60.0024001,,
,,,,,,,,,,,,,,,,,0.02037037,0.103703704,1,0,0,30.6501,image_2,0,9,9,20,1,1018,"The balding man is shaking a person's hand, but it is blocked by the man in grey.",H,0,2,video-storytelling-videowedding_Bp8t824h5NE-shot39_1,Images/video-storytelling-videowedding_Bp8t824h5NE-shot39_1/img104.jpg,Images/video-storytelling-videowedding_Bp8t824h5NE-shot39_1/img117.jpg,Images/video-storytelling-videowedding_Bp8t824h5NE-shot39_1/img222.jpg,Images/video-storytelling-videowedding_Bp8t824h5NE-shot39_1/img257.jpg,Images/video-storytelling-videowedding_Bp8t824h5NE-shot39_1/img343.jpg,Images/video-storytelling-videowedding_Bp8t824h5NE-shot39_1/img389.jpg,Images/video-storytelling-videowedding_Bp8t824h5NE-shot39_1/img394.jpg,Images/video-storytelling-videowedding_Bp8t824h5NE-shot39_1/img401.jpg,Images/video-storytelling-videowedding_Bp8t824h5NE-shot39_1/img416.jpg,Images/video-storytelling-videowedding_Bp8t824h5NE-shot39_1/img429.jpg,2060,18,0,2022-06-18_11h47.42.182,annotation,2021.2.3,Win32,60.0024001,,
,,,,,,,,,,,,,,,,,-0.025,-0.20462963,1,0,0,44.5001,image_7,0,10,10,45,1,614,The man's driving gloves is obscuring the woman's chest area. Her shoulders are not visible.,H,0,8,MSR-VTT-videoTestVideo_video8971-shot1_0,Images/MSR-VTT-videoTestVideo_video8971-shot1_0/img0.jpg,Images/MSR-VTT-videoTestVideo_video8971-shot1_0/img3.jpg,Images/MSR-VTT-videoTestVideo_video8971-shot1_0/img8.jpg,Images/MSR-VTT-videoTestVideo_video8971-shot1_0/img26.jpg,Images/MSR-VTT-videoTestVideo_video8971-shot1_0/img32.jpg,Images/MSR-VTT-videoTestVideo_video8971-shot1_0/img45.jpg,Images/MSR-VTT-videoTestVideo_video8971-shot1_0/img60.jpg,Images/MSR-VTT-videoTestVideo_video8971-shot1_0/img79.jpg,Images/MSR-VTT-videoTestVideo_video8971-shot1_0/img106.jpg,Images/MSR-VTT-videoTestVideo_video8971-shot1_0/img125.jpg,1448,18,0,2022-06-18_11h47.42.182,annotation,2021.2.3,Win32,60.0024001,,
,,,,,,,,,,,,,,,,,-0.455555556,-0.181481481,1,0,0,26.4668,image_5,0,11,11,35,1,510,Only one dish is visible. The right edge of the dish is against the right edge of the frame.,H,1,5,MSR-VTT-videoTestVideo_video9640-shot1_1,Images/MSR-VTT-videoTestVideo_video9640-shot1_1/img80.jpg,Images/MSR-VTT-videoTestVideo_video9640-shot1_1/img85.jpg,Images/MSR-VTT-videoTestVideo_video9640-shot1_1/img90.jpg,Images/MSR-VTT-videoTestVideo_video9640-shot1_1/img91.jpg,Images/MSR-VTT-videoTestVideo_video9640-shot1_1/img163.jpg,Images/MSR-VTT-videoTestVideo_video9640-shot1_1/img169.jpg,Images/MSR-VTT-videoTestVideo_video9640-shot1_1/img174.jpg,Images/MSR-VTT-videoTestVideo_video9640-shot1_1/img175.jpg,Images/MSR-VTT-videoTestVideo_video9640-shot1_1/img176.jpg,Images/MSR-VTT-videoTestVideo_video9640-shot1_1/img181.jpg,1153,18,0,2022-06-18_11h47.42.182,annotation,2021.2.3,Win32,60.0024001,,
,,,,,,,,,,,,,,,,,-0.013888889,-0.183333333,1,0,0,17.8391,image_7,0,12,12,29,1,1816,A group of people standing on top of a bed.,M,0,8,MSR-VTT-videoTestVideo_video7109-shot1_0,Images/MSR-VTT-videoTestVideo_video7109-shot1_0/img0.jpg,Images/MSR-VTT-videoTestVideo_video7109-shot1_0/img1.jpg,Images/MSR-VTT-videoTestVideo_video7109-shot1_0/img3.jpg,Images/MSR-VTT-videoTestVideo_video7109-shot1_0/img4.jpg,Images/MSR-VTT-videoTestVideo_video7109-shot1_0/img5.jpg,Images/MSR-VTT-videoTestVideo_video7109-shot1_0/img9.jpg,Images/MSR-VTT-videoTestVideo_video7109-shot1_0/img13.jpg,Images/MSR-VTT-videoTestVideo_video7109-shot1_0/img18.jpg,Images/MSR-VTT-videoTestVideo_video7109-shot1_0/img24.jpg,Images/MSR-VTT-videoTestVideo_video7109-shot1_0/img26.jpg,5,18,0,2022-06-18_11h47.42.182,annotation,2021.2.3,Win32,60.0024001,,
,,,,,,,,,,,,,,,,,-0.462037037,-0.192592593,1,0,0,24.3004,image_5,0,13,13,31,1,1913,A view of a kitchen with a table and chairs.,M,1,4,MSR-VTT-videoTestVideo_video8356-shot1_6,Images/MSR-VTT-videoTestVideo_video8356-shot1_6/img498.jpg,Images/MSR-VTT-videoTestVideo_video8356-shot1_6/img499.jpg,Images/MSR-VTT-videoTestVideo_video8356-shot1_6/img508.jpg,Images/MSR-VTT-videoTestVideo_video8356-shot1_6/img518.jpg,Images/MSR-VTT-videoTestVideo_video8356-shot1_6/img525.jpg,Images/MSR-VTT-videoTestVideo_video8356-shot1_6/img531.jpg,Images/MSR-VTT-videoTestVideo_video8356-shot1_6/img543.jpg,Images/MSR-VTT-videoTestVideo_video8356-shot1_6/img546.jpg,Images/MSR-VTT-videoTestVideo_video8356-shot1_6/img550.jpg,Images/MSR-VTT-videoTestVideo_video8356-shot1_6/img554.jpg,513,18,0,2022-06-18_11h47.42.182,annotation,2021.2.3,Win32,60.0024001,,
,,,,,,,,,,,,,,,,,0.257407407,-0.110185185,1,0,0,78.5732,image_8,0,14,14,3,1,1761,A person is holding a doll that is holding a toy.,M,0,3,MSR-VTT-videoTestVideo_video8604-shot1_0,Images/MSR-VTT-videoTestVideo_video8604-shot1_0/img0.jpg,Images/MSR-VTT-videoTestVideo_video8604-shot1_0/img2.jpg,Images/MSR-VTT-videoTestVideo_video8604-shot1_0/img8.jpg,Images/MSR-VTT-videoTestVideo_video8604-shot1_0/img13.jpg,Images/MSR-VTT-videoTestVideo_video8604-shot1_0/img17.jpg,Images/MSR-VTT-videoTestVideo_video8604-shot1_0/img20.jpg,Images/MSR-VTT-videoTestVideo_video8604-shot1_0/img22.jpg,Images/MSR-VTT-videoTestVideo_video8604-shot1_0/img28.jpg,Images/MSR-VTT-videoTestVideo_video8604-shot1_0/img37.jpg,Images/MSR-VTT-videoTestVideo_video8604-shot1_0/img49.jpg,73,18,0,2022-06-18_11h47.42.182,annotation,2021.2.3,Win32,60.0024001,,
,,,,,,,,,,,,,,,,,-0.011111111,0.127777778,1,0,0,22.5001,image_2,0,15,15,37,1,1763,A woman in a dress standing in front of a door.,M,0,5,MSR-VTT-videoTestVideo_video9979-shot1_2,Images/MSR-VTT-videoTestVideo_video9979-shot1_2/img84.jpg,Images/MSR-VTT-videoTestVideo_video9979-shot1_2/img87.jpg,Images/MSR-VTT-videoTestVideo_video9979-shot1_2/img92.jpg,Images/MSR-VTT-videoTestVideo_video9979-shot1_2/img96.jpg,Images/MSR-VTT-videoTestVideo_video9979-shot1_2/img99.jpg,Images/MSR-VTT-videoTestVideo_video9979-shot1_2/img101.jpg,Images/MSR-VTT-videoTestVideo_video9979-shot1_2/img103.jpg,Images/MSR-VTT-videoTestVideo_video9979-shot1_2/img106.jpg,Images/MSR-VTT-videoTestVideo_video9979-shot1_2/img110.jpg,Images/MSR-VTT-videoTestVideo_video9979-shot1_2/img117.jpg,1150,18,0,2022-06-18_11h47.42.182,annotation,2021.2.3,Win32,60.0024001,,
,,,,,,,,,,,,,,,,,-0.480555556,-0.150925926,1,0,0,26.25,image_5,0,16,16,57,1,97,Bread placed on pan with no hand and no utensils. Looks yellow,H,0,5,YouCook-video0027-shot5_0,Images/YouCook-video0027-shot5_0/img2.jpg,Images/YouCook-video0027-shot5_0/img8.jpg,Images/YouCook-video0027-shot5_0/img19.jpg,Images/YouCook-video0027-shot5_0/img23.jpg,Images/YouCook-video0027-shot5_0/img46.jpg,Images/YouCook-video0027-shot5_0/img57.jpg,Images/YouCook-video0027-shot5_0/img107.jpg,Images/YouCook-video0027-shot5_0/img115.jpg,Images/YouCook-video0027-shot5_0/img127.jpg,Images/YouCook-video0027-shot5_0/img130.jpg,153,18,0,2022-06-18_11h47.42.182,annotation,2021.2.3,Win32,60.0024001,,
,,,,,,,,,,,,,,,,,-0.503703704,0.081481481,1,0,0,38.1333,image_0,0,17,17,8,1,989,"The older woman holds a fork paralell to a plate below it, roughly level with the neckline of the shirt of the woman to her left",H,0,4,MSR-VTT-videoTestVideo_video8345-shot1_1,Images/MSR-VTT-videoTestVideo_video8345-shot1_1/img50.jpg,Images/MSR-VTT-videoTestVideo_video8345-shot1_1/img52.jpg,Images/MSR-VTT-videoTestVideo_video8345-shot1_1/img63.jpg,Images/MSR-VTT-videoTestVideo_video8345-shot1_1/img72.jpg,Images/MSR-VTT-videoTestVideo_video8345-shot1_1/img79.jpg,Images/MSR-VTT-videoTestVideo_video8345-shot1_1/img87.jpg,Images/MSR-VTT-videoTestVideo_video8345-shot1_1/img99.jpg,Images/MSR-VTT-videoTestVideo_video8345-shot1_1/img132.jpg,Images/MSR-VTT-videoTestVideo_video8345-shot1_1/img141.jpg,Images/MSR-VTT-videoTestVideo_video8345-shot1_1/img147.jpg,2,18,0,2022-06-18_11h47.42.182,annotation,2021.2.3,Win32,60.0024001,,
,,,,,,,,,,,,,,,,,0.005555556,-0.192592593,1,0,0,70.15,image_7,0,18,18,56,1,1284,A man holding a hot dog in front of a man holding a bottle of wine.,M,1,4,MSR-VTT-videoTestVideo_video9327-shot1_0,Images/MSR-VTT-videoTestVideo_video9327-shot1_0/img0.jpg,Images/MSR-VTT-videoTestVideo_video9327-shot1_0/img3.jpg,Images/MSR-VTT-videoTestVideo_video9327-shot1_0/img26.jpg,Images/MSR-VTT-videoTestVideo_video9327-shot1_0/img31.jpg,Images/MSR-VTT-videoTestVideo_video9327-shot1_0/img39.jpg,Images/MSR-VTT-videoTestVideo_video9327-shot1_0/img43.jpg,Images/MSR-VTT-videoTestVideo_video9327-shot1_0/img46.jpg,Images/MSR-VTT-videoTestVideo_video9327-shot1_0/img48.jpg,Images/MSR-VTT-videoTestVideo_video9327-shot1_0/img53.jpg,Images/MSR-VTT-videoTestVideo_video9327-shot1_0/img61.jpg,874,18,0,2022-06-18_11h47.42.182,annotation,2021.2.3,Win32,60.0024001,,
,,,,,,,,,,,,,,,,,0.008333333,-0.185185185,1,0,0,19.4666,image_7,0,19,19,40,1,231,No gun or checkerboard is visible. ,H,0,7,MSR-VTT-videoTestVideo_video8356-shot1_7,Images/MSR-VTT-videoTestVideo_video8356-shot1_7/img555.jpg,Images/MSR-VTT-videoTestVideo_video8356-shot1_7/img565.jpg,Images/MSR-VTT-videoTestVideo_video8356-shot1_7/img567.jpg,Images/MSR-VTT-videoTestVideo_video8356-shot1_7/img569.jpg,Images/MSR-VTT-videoTestVideo_video8356-shot1_7/img575.jpg,Images/MSR-VTT-videoTestVideo_video8356-shot1_7/img578.jpg,Images/MSR-VTT-videoTestVideo_video8356-shot1_7/img584.jpg,Images/MSR-VTT-videoTestVideo_video8356-shot1_7/img586.jpg,Images/MSR-VTT-videoTestVideo_video8356-shot1_7/img593.jpg,Images/MSR-VTT-videoTestVideo_video8356-shot1_7/img601.jpg,52,18,0,2022-06-18_11h47.42.182,annotation,2021.2.3,Win32,60.0024001,,
,,,,,,,,,,,,,,,,,0.499074074,-0.164814815,1,0,0,57.1166,image_9,0,20,20,19,1,1183,A blurry image of a person holding a kite in the water.,M,0,4,MSR-VTT-videoTestVideo_video9005-shot1_3,Images/MSR-VTT-videoTestVideo_video9005-shot1_3/img535.jpg,Images/MSR-VTT-videoTestVideo_video9005-shot1_3/img537.jpg,Images/MSR-VTT-videoTestVideo_video9005-shot1_3/img538.jpg,Images/MSR-VTT-videoTestVideo_video9005-shot1_3/img551.jpg,Images/MSR-VTT-videoTestVideo_video9005-shot1_3/img553.jpg,Images/MSR-VTT-videoTestVideo_video9005-shot1_3/img557.jpg,Images/MSR-VTT-videoTestVideo_video9005-shot1_3/img565.jpg,Images/MSR-VTT-videoTestVideo_video9005-shot1_3/img575.jpg,Images/MSR-VTT-videoTestVideo_video9005-shot1_3/img578.jpg,Images/MSR-VTT-videoTestVideo_video9005-shot1_3/img579.jpg,1689,18,0,2022-06-18_11h47.42.182,annotation,2021.2.3,Win32,60.0024001,,
,,,,,,,,,,,,,,,,,-0.253703704,-0.17037037,1,0,0,82.5333,image_6,0,21,21,26,1,1828,A man jumps onto a basketball court while standing on a hoop.,M,0,6,MSR-VTT-videoTestVideo_video9044-shot1_0,Images/MSR-VTT-videoTestVideo_video9044-shot1_0/img0.jpg,Images/MSR-VTT-videoTestVideo_video9044-shot1_0/img3.jpg,Images/MSR-VTT-videoTestVideo_video9044-shot1_0/img6.jpg,Images/MSR-VTT-videoTestVideo_video9044-shot1_0/img8.jpg,Images/MSR-VTT-videoTestVideo_video9044-shot1_0/img11.jpg,Images/MSR-VTT-videoTestVideo_video9044-shot1_0/img15.jpg,Images/MSR-VTT-videoTestVideo_video9044-shot1_0/img21.jpg,Images/MSR-VTT-videoTestVideo_video9044-shot1_0/img31.jpg,Images/MSR-VTT-videoTestVideo_video9044-shot1_0/img41.jpg,Images/MSR-VTT-videoTestVideo_video9044-shot1_0/img54.jpg,1773,18,0,2022-06-18_11h47.42.182,annotation,2021.2.3,Win32,60.0024001,,
,,,,,,,,,,,,,,,,,-0.24537037,0.093518519,1,0,0,11.6667,image_1,0,22,22,62,1,4,A penguin holding a piece of paper with text on it. ,H,,1,open-images-2521_074d6af730ed17a6,Checks/check5/open-images-509_4d8bd994cb8c6eaeimg0.jpg,Checks/check5/open-images-2521_074d6af730ed17a6img1.jpg,Checks/check5/open-images-1365_a00a5fde334ae45aimg4.jpg,Checks/check5/open-images-1602_44092afdeab39e73img6.jpg,Checks/check5/open-images-1032_059f3cdfb85ee0ceimg3.jpg,Checks/check5/open-images-727_25b77fff36adba66img2.jpg,Checks/check5/open-images-2208_0fb92b9978d98575img2.jpg,Checks/check5/open-images-1305_05769e6abb16fdc8img9.jpg,Checks/check5/open-images-2676_052dbf7b4899430bimg1.jpg,Checks/check5/open-images-2569_1e81d79bb796a2dbimg7.jpg,,,1,2022-06-18_11h47.42.182,annotation,2021.2.3,Win32,60.0024001,,
,,,,,,,,,,,,,,,,,-0.493518519,-0.178703704,1,0,0,12.65,image_5,0,23,23,59,1,1,The only picture of a hawk.  It is looking to the left.  You see lots of branches and darker blue sky. ,H,,5,open-images-958_686caac9c5b322e7,Checks/check2/open-images-2603_1b5152f01f0093e7img3.jpg,Checks/check2/open-images-1836_069810916ce5d675img8.jpg,Checks/check2/open-images-974_0748fdedc4bf8b7bimg2.jpg,Checks/check2/open-images-617_01fb725fb1aa7b04img6.jpg,Checks/check2/open-images-507_047769e1f977cd97img2.jpg,Checks/check2/open-images-958_686caac9c5b322e7img5.jpg,Checks/check2/open-images-1278_21851d9bf5dc05c9img7.jpg,Checks/check2/open-images-2424_05f04546e01499f2img0.jpg,Checks/check2/open-images-1529_1442b11a10a6aeadimg3.jpg,Checks/check2/open-images-514_2c523ddedc2561d4img1.jpg,,,1,2022-06-18_11h47.42.182,annotation,2021.2.3,Win32,60.0024001,,
,,,,,,,,,,,,,,,,,-0.275,0.128703704,1,0,0,42.6499,image_1,0,24,24,4,1,2068,A black and white animal laying on top of a pile of dirt.,M,0,3,video-storytelling-videocamping_EytINruY3-U-shot37_0,Images/video-storytelling-videocamping_EytINruY3-U-shot37_0/img0.jpg,Images/video-storytelling-videocamping_EytINruY3-U-shot37_0/img16.jpg,Images/video-storytelling-videocamping_EytINruY3-U-shot37_0/img21.jpg,Images/video-storytelling-videocamping_EytINruY3-U-shot37_0/img42.jpg,Images/video-storytelling-videocamping_EytINruY3-U-shot37_0/img141.jpg,Images/video-storytelling-videocamping_EytINruY3-U-shot37_0/img159.jpg,Images/video-storytelling-videocamping_EytINruY3-U-shot37_0/img315.jpg,Images/video-storytelling-videocamping_EytINruY3-U-shot37_0/img317.jpg,Images/video-storytelling-videocamping_EytINruY3-U-shot37_0/img318.jpg,Images/video-storytelling-videocamping_EytINruY3-U-shot37_0/img321.jpg,796,18,0,2022-06-18_11h47.42.182,annotation,2021.2.3,Win32,60.0024001,,
,,,,,,,,,,,,,,,,,0.537962963,-0.193518519,1,0,0,13.8999,image_9,0,25,25,27,1,712,There is a wall full of pictures and the back of a man in a white shirt on the right.,H,0,8,MSR-VTT-videoTestVideo_video8129-shot1_6,Images/MSR-VTT-videoTestVideo_video8129-shot1_6/img645.jpg,Images/MSR-VTT-videoTestVideo_video8129-shot1_6/img648.jpg,Images/MSR-VTT-videoTestVideo_video8129-shot1_6/img650.jpg,Images/MSR-VTT-videoTestVideo_video8129-shot1_6/img657.jpg,Images/MSR-VTT-videoTestVideo_video8129-shot1_6/img660.jpg,Images/MSR-VTT-videoTestVideo_video8129-shot1_6/img681.jpg,Images/MSR-VTT-videoTestVideo_video8129-shot1_6/img723.jpg,Images/MSR-VTT-videoTestVideo_video8129-shot1_6/img750.jpg,Images/MSR-VTT-videoTestVideo_video8129-shot1_6/img767.jpg,Images/MSR-VTT-videoTestVideo_video8129-shot1_6/img787.jpg,1051,18,0,2022-06-18_11h47.42.182,annotation,2021.2.3,Win32,60.0024001,,
,,,,,,,,,,,,,,,,,0.494444444,-0.17037037,1,0,0,45.9667,image_9,0,26,26,36,1,1489,A young boy standing next to a colorful kite.,M,0,2,video-storytelling-videobirthday__amwPjAcoC8-shot65_1,Images/video-storytelling-videobirthday__amwPjAcoC8-shot65_1/img20.jpg,Images/video-storytelling-videobirthday__amwPjAcoC8-shot65_1/img23.jpg,Images/video-storytelling-videobirthday__amwPjAcoC8-shot65_1/img25.jpg,Images/video-storytelling-videobirthday__amwPjAcoC8-shot65_1/img27.jpg,Images/video-storytelling-videobirthday__amwPjAcoC8-shot65_1/img29.jpg,Images/video-storytelling-videobirthday__amwPjAcoC8-shot65_1/img31.jpg,Images/video-storytelling-videobirthday__amwPjAcoC8-shot65_1/img34.jpg,Images/video-storytelling-videobirthday__amwPjAcoC8-shot65_1/img36.jpg,Images/video-storytelling-videobirthday__amwPjAcoC8-shot65_1/img38.jpg,Images/video-storytelling-videobirthday__amwPjAcoC8-shot65_1/img42.jpg,1307,18,0,2022-06-18_11h47.42.182,annotation,2021.2.3,Win32,60.0024001,,
,,,,,,,,,,,,,,,,,0.050925926,0.083333333,1,0,0,28.5331,image_2,0,27,27,15,1,1703,A person cutting up a cake on a table.,M,0,2,YouCook-video0017-shot2_2,Images/YouCook-video0017-shot2_2/img130.jpg,Images/YouCook-video0017-shot2_2/img134.jpg,Images/YouCook-video0017-shot2_2/img139.jpg,Images/YouCook-video0017-shot2_2/img145.jpg,Images/YouCook-video0017-shot2_2/img146.jpg,Images/YouCook-video0017-shot2_2/img150.jpg,Images/YouCook-video0017-shot2_2/img151.jpg,Images/YouCook-video0017-shot2_2/img152.jpg,Images/YouCook-video0017-shot2_2/img155.jpg,Images/YouCook-video0017-shot2_2/img156.jpg,619,18,0,2022-06-18_11h47.42.182,annotation,2021.2.3,Win32,60.0024001,,
,,,,,,,,,,,,,,,,,0,0.096296296,1,0,0,3.2,image_2,0,28,28,58,1,0,Pair of black gloves,H,,2,open-images-510_3a241cb30d6e5319,Checks/check1/open-images-225_1442c0d0ef23d58bimg3.jpg,Checks/check1/open-images-2759_3a42708fe77398b7img8.jpg,Checks/check1/open-images-510_3a241cb30d6e5319img2.jpg,Checks/check1/open-images-2209_02c98146fb93ff17img1.jpg,Checks/check1/open-images-1553_0f128317e56a9d2fimg9.jpg,Checks/check1/open-images-2666_044d7c6d11e6b493img8.jpg,Checks/check1/open-images-2880_159294646083f545img4.jpg,Checks/check1/open-images-609_2dc0baa993a2bd25img5.jpg,Checks/check1/open-images-1854_2b15616b4f1080e7img2.jpg,Checks/check1/open-images-1435_1b0ce31951048765img8.jpg,,,1,2022-06-18_11h47.42.182,annotation,2021.2.3,Win32,60.0024001,,
,,,,,,,,,,,,,,,,,-0.468518519,0.098148148,1,0,0,60.8833,image_0,0,29,29,52,1,1357,A plate filled with food on a table.,M,0,2,MSR-VTT-videoTestVideo_video9983-shot1_0,Images/MSR-VTT-videoTestVideo_video9983-shot1_0/img0.jpg,Images/MSR-VTT-videoTestVideo_video9983-shot1_0/img363.jpg,Images/MSR-VTT-videoTestVideo_video9983-shot1_0/img465.jpg,Images/MSR-VTT-videoTestVideo_video9983-shot1_0/img466.jpg,Images/MSR-VTT-videoTestVideo_video9983-shot1_0/img467.jpg,Images/MSR-VTT-videoTestVideo_video9983-shot1_0/img469.jpg,Images/MSR-VTT-videoTestVideo_video9983-shot1_0/img489.jpg,Images/MSR-VTT-videoTestVideo_video9983-shot1_0/img494.jpg,Images/MSR-VTT-videoTestVideo_video9983-shot1_0/img527.jpg,Images/MSR-VTT-videoTestVideo_video9983-shot1_0/img579.jpg,1529,18,0,2022-06-18_11h47.42.182,annotation,2021.2.3,Win32,60.0024001,,
,,,,,,,,,,,,,,,,,-0.512037037,0.124074074,1,0,0,63.8001,image_0,0,30,30,10,1,1537,A group of people standing in front of a horse.,M,0,2,MSR-VTT-videoTestVideo_video9248-shot0_1,Images/MSR-VTT-videoTestVideo_video9248-shot0_1/img62.jpg,Images/MSR-VTT-videoTestVideo_video9248-shot0_1/img71.jpg,Images/MSR-VTT-videoTestVideo_video9248-shot0_1/img88.jpg,Images/MSR-VTT-videoTestVideo_video9248-shot0_1/img92.jpg,Images/MSR-VTT-videoTestVideo_video9248-shot0_1/img98.jpg,Images/MSR-VTT-videoTestVideo_video9248-shot0_1/img125.jpg,Images/MSR-VTT-videoTestVideo_video9248-shot0_1/img147.jpg,Images/MSR-VTT-videoTestVideo_video9248-shot0_1/img153.jpg,Images/MSR-VTT-videoTestVideo_video9248-shot0_1/img163.jpg,Images/MSR-VTT-videoTestVideo_video9248-shot0_1/img193.jpg,2015,18,0,2022-06-18_11h47.42.182,annotation,2021.2.3,Win32,60.0024001,,
,,,,,,,,,,,,,,,,,-0.50462963,-0.15,1,0,0,36.4499,image_5,0,31,31,18,1,1383,A picture of a couch with a screen on it.,M,0,4,MSR-VTT-videoTestVideo_video8633-shot1_0,Images/MSR-VTT-videoTestVideo_video8633-shot1_0/img0.jpg,Images/MSR-VTT-videoTestVideo_video8633-shot1_0/img3.jpg,Images/MSR-VTT-videoTestVideo_video8633-shot1_0/img6.jpg,Images/MSR-VTT-videoTestVideo_video8633-shot1_0/img7.jpg,Images/MSR-VTT-videoTestVideo_video8633-shot1_0/img8.jpg,Images/MSR-VTT-videoTestVideo_video8633-shot1_0/img9.jpg,Images/MSR-VTT-videoTestVideo_video8633-shot1_0/img14.jpg,Images/MSR-VTT-videoTestVideo_video8633-shot1_0/img27.jpg,Images/MSR-VTT-videoTestVideo_video8633-shot1_0/img66.jpg,Images/MSR-VTT-videoTestVideo_video8633-shot1_0/img94.jpg,1223,18,0,2022-06-18_11h47.42.182,annotation,2021.2.3,Win32,60.0024001,,
,,,,,,,,,,,,,,,,,0.452777778,-0.181481481,1,0,0,41.6501,image_9,0,32,32,13,1,571,The woman has four fingers on her wrist.  The thumb is also touching farther up the arm.  The image is pretty clear with very little blur. ,H,1,9,MSR-VTT-videoTestVideo_video9550-shot1_0,Images/MSR-VTT-videoTestVideo_video9550-shot1_0/img0.jpg,Images/MSR-VTT-videoTestVideo_video9550-shot1_0/img13.jpg,Images/MSR-VTT-videoTestVideo_video9550-shot1_0/img25.jpg,Images/MSR-VTT-videoTestVideo_video9550-shot1_0/img37.jpg,Images/MSR-VTT-videoTestVideo_video9550-shot1_0/img44.jpg,Images/MSR-VTT-videoTestVideo_video9550-shot1_0/img70.jpg,Images/MSR-VTT-videoTestVideo_video9550-shot1_0/img90.jpg,Images/MSR-VTT-videoTestVideo_video9550-shot1_0/img95.jpg,Images/MSR-VTT-videoTestVideo_video9550-shot1_0/img98.jpg,Images/MSR-VTT-videoTestVideo_video9550-shot1_0/img103.jpg,1126,18,0,2022-06-18_11h47.42.182,annotation,2021.2.3,Win32,60.0024001,,
,,,,,,,,,,,,,,,,,-0.441666667,-0.171296296,1,0,0,50.5837,image_5,0,33,33,34,1,526,A man looking down with his mouth and eyes closed.  You can see the entire screen in the back of the man with very little wall showing on the far left. ,H,0,5,MSR-VTT-videoTestVideo_video7388-shot2_0,Images/MSR-VTT-videoTestVideo_video7388-shot2_0/img0.jpg,Images/MSR-VTT-videoTestVideo_video7388-shot2_0/img5.jpg,Images/MSR-VTT-videoTestVideo_video7388-shot2_0/img12.jpg,Images/MSR-VTT-videoTestVideo_video7388-shot2_0/img17.jpg,Images/MSR-VTT-videoTestVideo_video7388-shot2_0/img21.jpg,Images/MSR-VTT-videoTestVideo_video7388-shot2_0/img26.jpg,Images/MSR-VTT-videoTestVideo_video7388-shot2_0/img29.jpg,Images/MSR-VTT-videoTestVideo_video7388-shot2_0/img30.jpg,Images/MSR-VTT-videoTestVideo_video7388-shot2_0/img37.jpg,Images/MSR-VTT-videoTestVideo_video7388-shot2_0/img41.jpg,323,18,0,2022-06-18_11h47.42.182,annotation,2021.2.3,Win32,60.0024001,,
,,,,,,,,,,,,,,,,,-0.238888889,-0.171296296,1,0,0,47.1499,image_6,0,34,34,44,1,1920,A person is holding a toy that is wrapped in plastic.,M,1,7,MSR-VTT-videoTestVideo_video9161-shot1_0,Images/MSR-VTT-videoTestVideo_video9161-shot1_0/img0.jpg,Images/MSR-VTT-videoTestVideo_video9161-shot1_0/img10.jpg,Images/MSR-VTT-videoTestVideo_video9161-shot1_0/img30.jpg,Images/MSR-VTT-videoTestVideo_video9161-shot1_0/img83.jpg,Images/MSR-VTT-videoTestVideo_video9161-shot1_0/img87.jpg,Images/MSR-VTT-videoTestVideo_video9161-shot1_0/img90.jpg,Images/MSR-VTT-videoTestVideo_video9161-shot1_0/img95.jpg,Images/MSR-VTT-videoTestVideo_video9161-shot1_0/img105.jpg,Images/MSR-VTT-videoTestVideo_video9161-shot1_0/img111.jpg,Images/MSR-VTT-videoTestVideo_video9161-shot1_0/img114.jpg,999,18,0,2022-06-18_11h47.42.182,annotation,2021.2.3,Win32,60.0024001,,
,,,,,,,,,,,,,,,,,0.511111111,-0.202777778,1,0,0,74.1999,image_9,0,35,35,54,1,1192,A person is holding a pair of scissors in their hands.,M,0,9,MSR-VTT-videoTestVideo_video9759-shot1_0,Images/MSR-VTT-videoTestVideo_video9759-shot1_0/img0.jpg,Images/MSR-VTT-videoTestVideo_video9759-shot1_0/img8.jpg,Images/MSR-VTT-videoTestVideo_video9759-shot1_0/img16.jpg,Images/MSR-VTT-videoTestVideo_video9759-shot1_0/img32.jpg,Images/MSR-VTT-videoTestVideo_video9759-shot1_0/img37.jpg,Images/MSR-VTT-videoTestVideo_video9759-shot1_0/img46.jpg,Images/MSR-VTT-videoTestVideo_video9759-shot1_0/img56.jpg,Images/MSR-VTT-videoTestVideo_video9759-shot1_0/img65.jpg,Images/MSR-VTT-videoTestVideo_video9759-shot1_0/img69.jpg,Images/MSR-VTT-videoTestVideo_video9759-shot1_0/img72.jpg,544,18,0,2022-06-18_11h47.42.182,annotation,2021.2.3,Win32,60.0024001,,
,,,,,,,,,,,,,,,,,0.286111111,-0.187962963,1,0,0,14.5164,image_8,0,36,36,0,1,602,A close up of the singer from the shoulder up. His mouth is open.,H,0,8,MSR-VTT-videoTestVideo_video9947-shot2_0,Images/MSR-VTT-videoTestVideo_video9947-shot2_0/img0.jpg,Images/MSR-VTT-videoTestVideo_video9947-shot2_0/img11.jpg,Images/MSR-VTT-videoTestVideo_video9947-shot2_0/img22.jpg,Images/MSR-VTT-videoTestVideo_video9947-shot2_0/img55.jpg,Images/MSR-VTT-videoTestVideo_video9947-shot2_0/img78.jpg,Images/MSR-VTT-videoTestVideo_video9947-shot2_0/img87.jpg,Images/MSR-VTT-videoTestVideo_video9947-shot2_0/img98.jpg,Images/MSR-VTT-videoTestVideo_video9947-shot2_0/img123.jpg,Images/MSR-VTT-videoTestVideo_video9947-shot2_0/img125.jpg,Images/MSR-VTT-videoTestVideo_video9947-shot2_0/img148.jpg,500,18,0,2022-06-18_11h47.42.182,annotation,2021.2.3,Win32,60.0024001,,
,,,,,,,,,,,,,,,,,-0.459259259,0.082407407,1,0,0,25.9169,image_0,0,37,37,47,1,1710,A man with a bag on his head holding a camera.,M,0,0,MSR-VTT-videoTestVideo_video8125-shot1_0,Images/MSR-VTT-videoTestVideo_video8125-shot1_0/img0.jpg,Images/MSR-VTT-videoTestVideo_video8125-shot1_0/img2.jpg,Images/MSR-VTT-videoTestVideo_video8125-shot1_0/img4.jpg,Images/MSR-VTT-videoTestVideo_video8125-shot1_0/img6.jpg,Images/MSR-VTT-videoTestVideo_video8125-shot1_0/img7.jpg,Images/MSR-VTT-videoTestVideo_video8125-shot1_0/img9.jpg,Images/MSR-VTT-videoTestVideo_video8125-shot1_0/img10.jpg,Images/MSR-VTT-videoTestVideo_video8125-shot1_0/img12.jpg,Images/MSR-VTT-videoTestVideo_video8125-shot1_0/img17.jpg,Images/MSR-VTT-videoTestVideo_video8125-shot1_0/img21.jpg,1999,18,0,2022-06-18_11h47.42.182,annotation,2021.2.3,Win32,60.0024001,,
,,,,,,,,,,,,,,,,,0.502777778,-0.160185185,1,0,0,11.1998,image_9,0,38,38,1,1,1910,A close up of a woman looking into a camera lens.,M,0,8,YouCook-video0013-shot13_0,Images/YouCook-video0013-shot13_0/img0.jpg,Images/YouCook-video0013-shot13_0/img8.jpg,Images/YouCook-video0013-shot13_0/img35.jpg,Images/YouCook-video0013-shot13_0/img48.jpg,Images/YouCook-video0013-shot13_0/img53.jpg,Images/YouCook-video0013-shot13_0/img56.jpg,Images/YouCook-video0013-shot13_0/img58.jpg,Images/YouCook-video0013-shot13_0/img59.jpg,Images/YouCook-video0013-shot13_0/img61.jpg,Images/YouCook-video0013-shot13_0/img64.jpg,1040,18,0,2022-06-18_11h47.42.182,annotation,2021.2.3,Win32,60.0024001,,
,,,,,,,,,,,,,,,,,0.286111111,0.125,1,0,0,30.8832,image_3,0,39,39,2,1,868,You see one leg and foot of the person behind the coach who is walking in the foreground. ,H,0,2,MSR-VTT-videoTestVideo_video9543-shot1_13,Images/MSR-VTT-videoTestVideo_video9543-shot1_13/img544.jpg,Images/MSR-VTT-videoTestVideo_video9543-shot1_13/img547.jpg,Images/MSR-VTT-videoTestVideo_video9543-shot1_13/img550.jpg,Images/MSR-VTT-videoTestVideo_video9543-shot1_13/img552.jpg,Images/MSR-VTT-videoTestVideo_video9543-shot1_13/img556.jpg,Images/MSR-VTT-videoTestVideo_video9543-shot1_13/img561.jpg,Images/MSR-VTT-videoTestVideo_video9543-shot1_13/img565.jpg,Images/MSR-VTT-videoTestVideo_video9543-shot1_13/img571.jpg,Images/MSR-VTT-videoTestVideo_video9543-shot1_13/img573.jpg,Images/MSR-VTT-videoTestVideo_video9543-shot1_13/img576.jpg,1033,18,0,2022-06-18_11h47.42.182,annotation,2021.2.3,Win32,60.0024001,,
,,,,,,,,,,,,,,,,,0.235185185,-0.162037037,1,0,0,95.8498,image_8,0,40,40,33,1,43,the costum guy has his face mostly up and forward and you can see a characters eye on the hanging item behidn the kid,H,1,8,video-storytelling-videobirthday__amwPjAcoC8-shot29_0,Images/video-storytelling-videobirthday__amwPjAcoC8-shot29_0/img0.jpg,Images/video-storytelling-videobirthday__amwPjAcoC8-shot29_0/img19.jpg,Images/video-storytelling-videobirthday__amwPjAcoC8-shot29_0/img56.jpg,Images/video-storytelling-videobirthday__amwPjAcoC8-shot29_0/img81.jpg,Images/video-storytelling-videobirthday__amwPjAcoC8-shot29_0/img86.jpg,Images/video-storytelling-videobirthday__amwPjAcoC8-shot29_0/img93.jpg,Images/video-storytelling-videobirthday__amwPjAcoC8-shot29_0/img105.jpg,Images/video-storytelling-videobirthday__amwPjAcoC8-shot29_0/img111.jpg,Images/video-storytelling-videobirthday__amwPjAcoC8-shot29_0/img119.jpg,Images/video-storytelling-videobirthday__amwPjAcoC8-shot29_0/img130.jpg,150,18,0,2022-06-18_11h47.42.182,annotation,2021.2.3,Win32,60.0024001,,
,,,,,,,,,,,,,,,,,-0.476851852,0.097222222,1,0,0,52.8999,image_0,0,41,41,30,1,1799,A woman sitting on top of a couch playing a video game.,M,0,6,video-storytelling-videochristmas_5RR_sRzKODA-shot21_2,Images/video-storytelling-videochristmas_5RR_sRzKODA-shot21_2/img72.jpg,Images/video-storytelling-videochristmas_5RR_sRzKODA-shot21_2/img73.jpg,Images/video-storytelling-videochristmas_5RR_sRzKODA-shot21_2/img80.jpg,Images/video-storytelling-videochristmas_5RR_sRzKODA-shot21_2/img87.jpg,Images/video-storytelling-videochristmas_5RR_sRzKODA-shot21_2/img88.jpg,Images/video-storytelling-videochristmas_5RR_sRzKODA-shot21_2/img89.jpg,Images/video-storytelling-videochristmas_5RR_sRzKODA-shot21_2/img90.jpg,Images/video-storytelling-videochristmas_5RR_sRzKODA-shot21_2/img91.jpg,Images/video-storytelling-videochristmas_5RR_sRzKODA-shot21_2/img92.jpg,Images/video-storytelling-videochristmas_5RR_sRzKODA-shot21_2/img94.jpg,1248,18,0,2022-06-18_11h47.42.182,annotation,2021.2.3,Win32,60.0024001,,
,,,,,,,,,,,,,,,,,0.539814815,-0.107407407,1,0,0,10.5334,image_9,0,42,42,6,1,94,The white dish is almost completely visible but the hand holding it is barely visible. ,H,0,8,MSR-VTT-videoTestVideo_video7285-shot1_0,Images/MSR-VTT-videoTestVideo_video7285-shot1_0/img0.jpg,Images/MSR-VTT-videoTestVideo_video7285-shot1_0/img15.jpg,Images/MSR-VTT-videoTestVideo_video7285-shot1_0/img50.jpg,Images/MSR-VTT-videoTestVideo_video7285-shot1_0/img163.jpg,Images/MSR-VTT-videoTestVideo_video7285-shot1_0/img190.jpg,Images/MSR-VTT-videoTestVideo_video7285-shot1_0/img474.jpg,Images/MSR-VTT-videoTestVideo_video7285-shot1_0/img533.jpg,Images/MSR-VTT-videoTestVideo_video7285-shot1_0/img540.jpg,Images/MSR-VTT-videoTestVideo_video7285-shot1_0/img549.jpg,Images/MSR-VTT-videoTestVideo_video7285-shot1_0/img560.jpg,1276,18,0,2022-06-18_11h47.42.182,annotation,2021.2.3,Win32,60.0024001,,
,,,,,,,,,,,,,,,,,0.251851852,-0.202777778,1,0,0,49.5165,image_8,0,43,43,42,1,696,he is on the white stone closest to the camera with both feet on the ground and in focus,H,1,8,video-storytelling-videobirthday_fwpYnUDbusw-shot56_0,Images/video-storytelling-videobirthday_fwpYnUDbusw-shot56_0/img0.jpg,Images/video-storytelling-videobirthday_fwpYnUDbusw-shot56_0/img1.jpg,Images/video-storytelling-videobirthday_fwpYnUDbusw-shot56_0/img6.jpg,Images/video-storytelling-videobirthday_fwpYnUDbusw-shot56_0/img17.jpg,Images/video-storytelling-videobirthday_fwpYnUDbusw-shot56_0/img42.jpg,Images/video-storytelling-videobirthday_fwpYnUDbusw-shot56_0/img62.jpg,Images/video-storytelling-videobirthday_fwpYnUDbusw-shot56_0/img66.jpg,Images/video-storytelling-videobirthday_fwpYnUDbusw-shot56_0/img69.jpg,Images/video-storytelling-videobirthday_fwpYnUDbusw-shot56_0/img74.jpg,Images/video-storytelling-videobirthday_fwpYnUDbusw-shot56_0/img77.jpg,1940,18,0,2022-06-18_11h47.42.182,annotation,2021.2.3,Win32,60.0024001,,
,,,,,,,,,,,,,,,,,-0.448148148,0.135185185,1,0,0,24.3333,image_0,0,44,44,41,1,2073,A man wearing a hat and hat on a sidewalk.,M,0,4,MSR-VTT-videoTestVideo_video9400-shot1_0,Images/MSR-VTT-videoTestVideo_video9400-shot1_0/img0.jpg,Images/MSR-VTT-videoTestVideo_video9400-shot1_0/img1.jpg,Images/MSR-VTT-videoTestVideo_video9400-shot1_0/img4.jpg,Images/MSR-VTT-videoTestVideo_video9400-shot1_0/img6.jpg,Images/MSR-VTT-videoTestVideo_video9400-shot1_0/img13.jpg,Images/MSR-VTT-videoTestVideo_video9400-shot1_0/img16.jpg,Images/MSR-VTT-videoTestVideo_video9400-shot1_0/img19.jpg,Images/MSR-VTT-videoTestVideo_video9400-shot1_0/img20.jpg,Images/MSR-VTT-videoTestVideo_video9400-shot1_0/img26.jpg,Images/MSR-VTT-videoTestVideo_video9400-shot1_0/img32.jpg,50,18,0,2022-06-18_11h47.42.182,annotation,2021.2.3,Win32,60.0024001,,
,,,,,,,,,,,,,,,,,-0.49537037,-0.213888889,1,0,0,42.4,image_5,0,45,45,5,1,1601,A close up of a stainless steel mixer in a kitchen.,M,0,8,MSR-VTT-videoTestVideo_video7911-shot1_0,Images/MSR-VTT-videoTestVideo_video7911-shot1_0/img0.jpg,Images/MSR-VTT-videoTestVideo_video7911-shot1_0/img6.jpg,Images/MSR-VTT-videoTestVideo_video7911-shot1_0/img11.jpg,Images/MSR-VTT-videoTestVideo_video7911-shot1_0/img13.jpg,Images/MSR-VTT-videoTestVideo_video7911-shot1_0/img14.jpg,Images/MSR-VTT-videoTestVideo_video7911-shot1_0/img15.jpg,Images/MSR-VTT-videoTestVideo_video7911-shot1_0/img21.jpg,Images/MSR-VTT-videoTestVideo_video7911-shot1_0/img42.jpg,Images/MSR-VTT-videoTestVideo_video7911-shot1_0/img121.jpg,Images/MSR-VTT-videoTestVideo_video7911-shot1_0/img124.jpg,2036,18,0,2022-06-18_11h47.42.182,annotation,2021.2.3,Win32,60.0024001,,
,,,,,,,,,,,,,,,,,0.506481481,-0.198148148,1,0,0,13.2167,image_9,0,46,46,24,1,1218,A picture of a couple of people in a room.,M,0,8,MSR-VTT-videoTestVideo_video8831-shot14_0,Images/MSR-VTT-videoTestVideo_video8831-shot14_0/img0.jpg,Images/MSR-VTT-videoTestVideo_video8831-shot14_0/img5.jpg,Images/MSR-VTT-videoTestVideo_video8831-shot14_0/img11.jpg,Images/MSR-VTT-videoTestVideo_video8831-shot14_0/img17.jpg,Images/MSR-VTT-videoTestVideo_video8831-shot14_0/img24.jpg,Images/MSR-VTT-videoTestVideo_video8831-shot14_0/img25.jpg,Images/MSR-VTT-videoTestVideo_video8831-shot14_0/img26.jpg,Images/MSR-VTT-videoTestVideo_video8831-shot14_0/img28.jpg,Images/MSR-VTT-videoTestVideo_video8831-shot14_0/img29.jpg,Images/MSR-VTT-videoTestVideo_video8831-shot14_0/img30.jpg,212,18,0,2022-06-18_11h47.42.182,annotation,2021.2.3,Win32,60.0024001,,
,,,,,,,,,,,,,,,,,-0.433333333,-0.172222222,1,0,0,29.7331,image_5,0,47,47,12,1,878,"The boy's right forearm is not seen, but the inside of his right elbow is on the left.",H,0,5,video-storytelling-videobirthday__amwPjAcoC8-shot39_3,Images/video-storytelling-videobirthday__amwPjAcoC8-shot39_3/img89.jpg,Images/video-storytelling-videobirthday__amwPjAcoC8-shot39_3/img91.jpg,Images/video-storytelling-videobirthday__amwPjAcoC8-shot39_3/img93.jpg,Images/video-storytelling-videobirthday__amwPjAcoC8-shot39_3/img100.jpg,Images/video-storytelling-videobirthday__amwPjAcoC8-shot39_3/img102.jpg,Images/video-storytelling-videobirthday__amwPjAcoC8-shot39_3/img105.jpg,Images/video-storytelling-videobirthday__amwPjAcoC8-shot39_3/img108.jpg,Images/video-storytelling-videobirthday__amwPjAcoC8-shot39_3/img110.jpg,Images/video-storytelling-videobirthday__amwPjAcoC8-shot39_3/img112.jpg,Images/video-storytelling-videobirthday__amwPjAcoC8-shot39_3/img114.jpg,767,18,0,2022-06-18_11h47.42.182,annotation,2021.2.3,Win32,60.0024001,,
,,,,,,,,,,,,,,,,,-0.464814815,0.076851852,1,0,0,45.4332,image_0,0,48,48,51,1,1600,A woman sitting next to a child on a cell phone.,M,0,7,MSR-VTT-videoTestVideo_video9682-shot0_3,Images/MSR-VTT-videoTestVideo_video9682-shot0_3/img230.jpg,Images/MSR-VTT-videoTestVideo_video9682-shot0_3/img232.jpg,Images/MSR-VTT-videoTestVideo_video9682-shot0_3/img234.jpg,Images/MSR-VTT-videoTestVideo_video9682-shot0_3/img238.jpg,Images/MSR-VTT-videoTestVideo_video9682-shot0_3/img243.jpg,Images/MSR-VTT-videoTestVideo_video9682-shot0_3/img250.jpg,Images/MSR-VTT-videoTestVideo_video9682-shot0_3/img253.jpg,Images/MSR-VTT-videoTestVideo_video9682-shot0_3/img260.jpg,Images/MSR-VTT-videoTestVideo_video9682-shot0_3/img267.jpg,Images/MSR-VTT-videoTestVideo_video9682-shot0_3/img272.jpg,1914,18,0,2022-06-18_11h47.42.182,annotation,2021.2.3,Win32,60.0024001,,
,,,,,,,,,,,,,,,,,0.457407407,-0.221296296,1,0,0,22.5998,image_9,0,49,49,7,1,1095,A yellow bus sitting on the side of a road.,M,1,7,MSR-VTT-videoTestVideo_video9975-shot1_0,Images/MSR-VTT-videoTestVideo_video9975-shot1_0/img0.jpg,Images/MSR-VTT-videoTestVideo_video9975-shot1_0/img5.jpg,Images/MSR-VTT-videoTestVideo_video9975-shot1_0/img16.jpg,Images/MSR-VTT-videoTestVideo_video9975-shot1_0/img25.jpg,Images/MSR-VTT-videoTestVideo_video9975-shot1_0/img50.jpg,Images/MSR-VTT-videoTestVideo_video9975-shot1_0/img63.jpg,Images/MSR-VTT-videoTestVideo_video9975-shot1_0/img67.jpg,Images/MSR-VTT-videoTestVideo_video9975-shot1_0/img80.jpg,Images/MSR-VTT-videoTestVideo_video9975-shot1_0/img85.jpg,Images/MSR-VTT-videoTestVideo_video9975-shot1_0/img89.jpg,1375,18,0,2022-06-18_11h47.42.182,annotation,2021.2.3,Win32,60.0024001,,
,,,,,,,,,,,,,,,,,-0.487037037,0.168518519,1,0,0,34.3999,image_0,0,50,50,43,1,198,Thumb is centered about in the middle of the bowl. Other hand is barely visible on top.,H,0,1,YouCook-video0008-shot2_4,Images/YouCook-video0008-shot2_4/img629.jpg,Images/YouCook-video0008-shot2_4/img631.jpg,Images/YouCook-video0008-shot2_4/img634.jpg,Images/YouCook-video0008-shot2_4/img636.jpg,Images/YouCook-video0008-shot2_4/img639.jpg,Images/YouCook-video0008-shot2_4/img644.jpg,Images/YouCook-video0008-shot2_4/img645.jpg,Images/YouCook-video0008-shot2_4/img648.jpg,Images/YouCook-video0008-shot2_4/img657.jpg,Images/YouCook-video0008-shot2_4/img667.jpg,985,18,0,2022-06-18_11h47.42.182,annotation,2021.2.3,Win32,60.0024001,,
,,,,,,,,,,,,,,,,,-0.484259259,0.094444444,1,0,0,20.3497,image_0,0,51,51,55,1,1466,A couple of people sitting next to each other on a table.,M,0,8,MSR-VTT-videoTestVideo_video9682-shot0_3,Images/MSR-VTT-videoTestVideo_video9682-shot0_3/img230.jpg,Images/MSR-VTT-videoTestVideo_video9682-shot0_3/img232.jpg,Images/MSR-VTT-videoTestVideo_video9682-shot0_3/img234.jpg,Images/MSR-VTT-videoTestVideo_video9682-shot0_3/img238.jpg,Images/MSR-VTT-videoTestVideo_video9682-shot0_3/img243.jpg,Images/MSR-VTT-videoTestVideo_video9682-shot0_3/img250.jpg,Images/MSR-VTT-videoTestVideo_video9682-shot0_3/img253.jpg,Images/MSR-VTT-videoTestVideo_video9682-shot0_3/img260.jpg,Images/MSR-VTT-videoTestVideo_video9682-shot0_3/img267.jpg,Images/MSR-VTT-videoTestVideo_video9682-shot0_3/img272.jpg,459,18,0,2022-06-18_11h47.42.182,annotation,2021.2.3,Win32,60.0024001,,
,,,,,,,,,,,,,,,,,-0.550925926,-0.221296296,1,0,0,31.6998,image_5,0,52,52,46,1,15,There is the slightest of openings to see the end of the bridge through the obstruction.,H,0,6,video-storytelling-videocamping_dBXYM3dQTSo-shot8_1,Images/video-storytelling-videocamping_dBXYM3dQTSo-shot8_1/img53.jpg,Images/video-storytelling-videocamping_dBXYM3dQTSo-shot8_1/img57.jpg,Images/video-storytelling-videocamping_dBXYM3dQTSo-shot8_1/img58.jpg,Images/video-storytelling-videocamping_dBXYM3dQTSo-shot8_1/img67.jpg,Images/video-storytelling-videocamping_dBXYM3dQTSo-shot8_1/img69.jpg,Images/video-storytelling-videocamping_dBXYM3dQTSo-shot8_1/img71.jpg,Images/video-storytelling-videocamping_dBXYM3dQTSo-shot8_1/img73.jpg,Images/video-storytelling-videocamping_dBXYM3dQTSo-shot8_1/img75.jpg,Images/video-storytelling-videocamping_dBXYM3dQTSo-shot8_1/img78.jpg,Images/video-storytelling-videocamping_dBXYM3dQTSo-shot8_1/img80.jpg,48,18,0,2022-06-18_11h47.42.182,annotation,2021.2.3,Win32,60.0024001,,
,,,,,,,,,,,,,,,,,0.255555556,-0.172222222,1,0,0,32.2,image_8,0,53,53,49,1,2050,A woman holding a piece of paper in front of a table.,M,1,1,MSR-VTT-videoTestVideo_video7547-shot1_0,Images/MSR-VTT-videoTestVideo_video7547-shot1_0/img0.jpg,Images/MSR-VTT-videoTestVideo_video7547-shot1_0/img4.jpg,Images/MSR-VTT-videoTestVideo_video7547-shot1_0/img14.jpg,Images/MSR-VTT-videoTestVideo_video7547-shot1_0/img15.jpg,Images/MSR-VTT-videoTestVideo_video7547-shot1_0/img16.jpg,Images/MSR-VTT-videoTestVideo_video7547-shot1_0/img19.jpg,Images/MSR-VTT-videoTestVideo_video7547-shot1_0/img20.jpg,Images/MSR-VTT-videoTestVideo_video7547-shot1_0/img21.jpg,Images/MSR-VTT-videoTestVideo_video7547-shot1_0/img22.jpg,Images/MSR-VTT-videoTestVideo_video7547-shot1_0/img25.jpg,1974,18,0,2022-06-18_11h47.42.182,annotation,2021.2.3,Win32,60.0024001,,
,,,,,,,,,,,,,,,,,0.513888889,0.119444444,1,0,0,19.95,image_4,0,54,54,9,1,791,The dog's right ear is just barely touching the right side of the image.,H,0,4,video-storytelling-videocamping_dBXYM3dQTSo-shot42_1,Images/video-storytelling-videocamping_dBXYM3dQTSo-shot42_1/img66.jpg,Images/video-storytelling-videocamping_dBXYM3dQTSo-shot42_1/img75.jpg,Images/video-storytelling-videocamping_dBXYM3dQTSo-shot42_1/img80.jpg,Images/video-storytelling-videocamping_dBXYM3dQTSo-shot42_1/img83.jpg,Images/video-storytelling-videocamping_dBXYM3dQTSo-shot42_1/img84.jpg,Images/video-storytelling-videocamping_dBXYM3dQTSo-shot42_1/img85.jpg,Images/video-storytelling-videocamping_dBXYM3dQTSo-shot42_1/img92.jpg,Images/video-storytelling-videocamping_dBXYM3dQTSo-shot42_1/img94.jpg,Images/video-storytelling-videocamping_dBXYM3dQTSo-shot42_1/img100.jpg,Images/video-storytelling-videocamping_dBXYM3dQTSo-shot42_1/img106.jpg,1102,18,0,2022-06-18_11h47.42.182,annotation,2021.2.3,Win32,60.0024001,,
,,,,,,,,,,,,,,,,,0.210185185,-0.169444444,1,0,0,49.7169,image_8,0,55,55,39,1,50,A blurred hand is positioned about a little less than halfway in front of a metal tool above a bowl.,H,1,5,YouCook-video0063-shot17_1,Images/YouCook-video0063-shot17_1/img90.jpg,Images/YouCook-video0063-shot17_1/img97.jpg,Images/YouCook-video0063-shot17_1/img110.jpg,Images/YouCook-video0063-shot17_1/img112.jpg,Images/YouCook-video0063-shot17_1/img117.jpg,Images/YouCook-video0063-shot17_1/img125.jpg,Images/YouCook-video0063-shot17_1/img126.jpg,Images/YouCook-video0063-shot17_1/img132.jpg,Images/YouCook-video0063-shot17_1/img144.jpg,Images/YouCook-video0063-shot17_1/img146.jpg,527,18,0,2022-06-18_11h47.42.182,annotation,2021.2.3,Win32,60.0024001,,
,,,,,,,,,,,,,,,,,-0.253703704,0.086111111,1,0,0,27.007,image_1,0,56,56,23,1,440,A woman in white on the left is just starting to cross in front a sitting man.  You can see the man's entire face still. ,H,0,1,MSR-VTT-videoTestVideo_video9289-shot1_0,Images/MSR-VTT-videoTestVideo_video9289-shot1_0/img0.jpg,Images/MSR-VTT-videoTestVideo_video9289-shot1_0/img9.jpg,Images/MSR-VTT-videoTestVideo_video9289-shot1_0/img15.jpg,Images/MSR-VTT-videoTestVideo_video9289-shot1_0/img17.jpg,Images/MSR-VTT-videoTestVideo_video9289-shot1_0/img30.jpg,Images/MSR-VTT-videoTestVideo_video9289-shot1_0/img37.jpg,Images/MSR-VTT-videoTestVideo_video9289-shot1_0/img43.jpg,Images/MSR-VTT-videoTestVideo_video9289-shot1_0/img54.jpg,Images/MSR-VTT-videoTestVideo_video9289-shot1_0/img62.jpg,Images/MSR-VTT-videoTestVideo_video9289-shot1_0/img69.jpg,1326,18,0,2022-06-18_11h47.42.182,annotation,2021.2.3,Win32,60.0024001,,
,,,,,,,,,,,,,,,,,-0.467592593,0.084259259,1,0,0,72.3907,image_0,0,57,57,53,1,390,You can barely see the car on the right's right headlight in the lower left hand corner of the picture. You can see the entire licence plate of the car in the middle. ,H,0,2,MSR-VTT-videoTestVideo_video7692-shot2_1,Images/MSR-VTT-videoTestVideo_video7692-shot2_1/img188.jpg,Images/MSR-VTT-videoTestVideo_video7692-shot2_1/img199.jpg,Images/MSR-VTT-videoTestVideo_video7692-shot2_1/img212.jpg,Images/MSR-VTT-videoTestVideo_video7692-shot2_1/img220.jpg,Images/MSR-VTT-videoTestVideo_video7692-shot2_1/img228.jpg,Images/MSR-VTT-videoTestVideo_video7692-shot2_1/img234.jpg,Images/MSR-VTT-videoTestVideo_video7692-shot2_1/img239.jpg,Images/MSR-VTT-videoTestVideo_video7692-shot2_1/img250.jpg,Images/MSR-VTT-videoTestVideo_video7692-shot2_1/img260.jpg,Images/MSR-VTT-videoTestVideo_video7692-shot2_1/img310.jpg,1162,18,0,2022-06-18_11h47.42.182,annotation,2021.2.3,Win32,60.0024001,,
,,,,,,,,,,,,,,,,,0.487037037,-0.173148148,1,0,0,5.4665,image_9,0,58,58,60,1,2,Green type writer with a red tape. ,H,,9,open-images-531_0dd4eb59d465a8be,Checks/check3/open-images-503_1ccd6fa641154ebbimg7.jpg,Checks/check3/open-images-1852_00faf52058ad28b8img4.jpg,Checks/check3/open-images-386_1b2e28d6d994603eimg1.jpg,Checks/check3/open-images-471_1121e9f97c200ac0img8.jpg,Checks/check3/open-images-1886_3db71eaddb618934img8.jpg,Checks/check3/open-images-1696_20a4ebf0c0f76b05img6.jpg,Checks/check3/open-images-2447_128483a48e1552f4img6.jpg,Checks/check3/open-images-2994_9965cbf8aa20bda0img2.jpg,Checks/check3/open-images-1068_03d63613107970b3img6.jpg,Checks/check3/open-images-531_0dd4eb59d465a8beimg9.jpg,,,1,2022-06-18_11h47.42.182,annotation,2021.2.3,Win32,60.0024001,,
,,,,,,,,,,,,,,,,,0.012037037,-0.156481481,1,0,0,44.3499,image_7,0,59,59,38,1,805,The blue object has been removed from the chocolate object for the 2nd time.  There is no overlay. ,H,0,7,MSR-VTT-videoTestVideo_video9585-shot1_0,Images/MSR-VTT-videoTestVideo_video9585-shot1_0/img0.jpg,Images/MSR-VTT-videoTestVideo_video9585-shot1_0/img36.jpg,Images/MSR-VTT-videoTestVideo_video9585-shot1_0/img47.jpg,Images/MSR-VTT-videoTestVideo_video9585-shot1_0/img55.jpg,Images/MSR-VTT-videoTestVideo_video9585-shot1_0/img84.jpg,Images/MSR-VTT-videoTestVideo_video9585-shot1_0/img90.jpg,Images/MSR-VTT-videoTestVideo_video9585-shot1_0/img115.jpg,Images/MSR-VTT-videoTestVideo_video9585-shot1_0/img133.jpg,Images/MSR-VTT-videoTestVideo_video9585-shot1_0/img142.jpg,Images/MSR-VTT-videoTestVideo_video9585-shot1_0/img148.jpg,1731,18,0,2022-06-18_11h47.42.182,annotation,2021.2.3,Win32,60.0024001,,
,,,,,,,,,,,,,,,,,0.430555556,0.135185185,1,0,0,90.3836,image_4,0,60,60,17,1,1453,A man riding a horse on a cart.,M,0,3,MSR-VTT-videoTestVideo_video9297-shot0_1,Images/MSR-VTT-videoTestVideo_video9297-shot0_1/img45.jpg,Images/MSR-VTT-videoTestVideo_video9297-shot0_1/img76.jpg,Images/MSR-VTT-videoTestVideo_video9297-shot0_1/img78.jpg,Images/MSR-VTT-videoTestVideo_video9297-shot0_1/img80.jpg,Images/MSR-VTT-videoTestVideo_video9297-shot0_1/img82.jpg,Images/MSR-VTT-videoTestVideo_video9297-shot0_1/img91.jpg,Images/MSR-VTT-videoTestVideo_video9297-shot0_1/img93.jpg,Images/MSR-VTT-videoTestVideo_video9297-shot0_1/img98.jpg,Images/MSR-VTT-videoTestVideo_video9297-shot0_1/img106.jpg,Images/MSR-VTT-videoTestVideo_video9297-shot0_1/img115.jpg,1688,18,0,2022-06-18_11h47.42.182,annotation,2021.2.3,Win32,60.0024001,,
,,,,,,,,,,,,,,,,,0.02037037,-0.132407407,1,0,0,51.0002,image_7,0,61,61,22,1,934,a man in a black suit is reaching towards a man in a grey suit the man in blak has his hand closed and about level with the brides head. ,H,0,7,video-storytelling-videowedding_Bp8t824h5NE-shot62_7,Images/video-storytelling-videowedding_Bp8t824h5NE-shot62_7/img1128.jpg,Images/video-storytelling-videowedding_Bp8t824h5NE-shot62_7/img1139.jpg,Images/video-storytelling-videowedding_Bp8t824h5NE-shot62_7/img1159.jpg,Images/video-storytelling-videowedding_Bp8t824h5NE-shot62_7/img1170.jpg,Images/video-storytelling-videowedding_Bp8t824h5NE-shot62_7/img1173.jpg,Images/video-storytelling-videowedding_Bp8t824h5NE-shot62_7/img1176.jpg,Images/video-storytelling-videowedding_Bp8t824h5NE-shot62_7/img1180.jpg,Images/video-storytelling-videowedding_Bp8t824h5NE-shot62_7/img1183.jpg,Images/video-storytelling-videowedding_Bp8t824h5NE-shot62_7/img1187.jpg,Images/video-storytelling-videowedding_Bp8t824h5NE-shot62_7/img1191.jpg,2040,18,0,2022-06-18_11h47.42.182,annotation,2021.2.3,Win32,60.0024001,,
,,,,,,,,,,,,,,,,,-0.237037037,0.091666667,1,0,0,46.1334,image_1,0,62,62,25,1,1890,A little boy wearing a green helmet standing in front of a building.,M,0,9,video-storytelling-videobirthday__amwPjAcoC8-shot11_1,Images/video-storytelling-videobirthday__amwPjAcoC8-shot11_1/img35.jpg,Images/video-storytelling-videobirthday__amwPjAcoC8-shot11_1/img41.jpg,Images/video-storytelling-videobirthday__amwPjAcoC8-shot11_1/img46.jpg,Images/video-storytelling-videobirthday__amwPjAcoC8-shot11_1/img56.jpg,Images/video-storytelling-videobirthday__amwPjAcoC8-shot11_1/img101.jpg,Images/video-storytelling-videobirthday__amwPjAcoC8-shot11_1/img112.jpg,Images/video-storytelling-videobirthday__amwPjAcoC8-shot11_1/img118.jpg,Images/video-storytelling-videobirthday__amwPjAcoC8-shot11_1/img120.jpg,Images/video-storytelling-videobirthday__amwPjAcoC8-shot11_1/img121.jpg,Images/video-storytelling-videobirthday__amwPjAcoC8-shot11_1/img125.jpg,2052,18,0,2022-06-18_11h47.42.182,annotation,2021.2.3,Win32,60.0024001,,
,,,,,,,,,,,,,,,,,,,,,,,,,,,,,,,,,,,,,,,,,,,,,,,,2022-06-18_11h47.42.182,annotation,2021.2.3,Win32,60.0024001,space,30.5794
