mturk,key_resp_2.keys,key_resp_2.rt,key_resp_3.keys,key_resp_3.rt,mouse_2.x,mouse_2.y,mouse_2.leftButton,mouse_2.midButton,mouse_2.rightButton,mouse_2.clicked_name,key_resp_5.keys,key_resp_5.rt,key_resp.keys,key_resp.rt,key_resp_6.keys,key_resp_6.rt,mouse.x,mouse.y,mouse.leftButton,mouse.midButton,mouse.rightButton,mouse.clicked_name,trials.thisRepN,trials.thisTrialN,trials.thisN,trials.thisIndex,trials.ran,N,caption,class_caption,model_guessed,target_idx,image_set,img1,img2,img3,img4,img5,img6,img7,img8,img9,img10,Q_id,block,is_check,date,expName,psychopyVersion,OS,frameRate,key_resp_7.keys,key_resp_7.rt
3076379,space,5.5236,space,8.6301,0.290311822,0.111453586,1,0,0,ex4,space,4.7463,space,5.982,space,2.8681,0.23401964,-0.154705675,1,0,0,image_8,0,0,0,49,1,137,A close up of a single woman with brown hair.,H,0,8,MSR-VTT-videoTestVideo_video7698-shot1_0,Images/MSR-VTT-videoTestVideo_video7698-shot1_0/img0.jpg,Images/MSR-VTT-videoTestVideo_video7698-shot1_0/img37.jpg,Images/MSR-VTT-videoTestVideo_video7698-shot1_0/img49.jpg,Images/MSR-VTT-videoTestVideo_video7698-shot1_0/img50.jpg,Images/MSR-VTT-videoTestVideo_video7698-shot1_0/img63.jpg,Images/MSR-VTT-videoTestVideo_video7698-shot1_0/img70.jpg,Images/MSR-VTT-videoTestVideo_video7698-shot1_0/img80.jpg,Images/MSR-VTT-videoTestVideo_video7698-shot1_0/img125.jpg,Images/MSR-VTT-videoTestVideo_video7698-shot1_0/img151.jpg,Images/MSR-VTT-videoTestVideo_video7698-shot1_0/img186.jpg,1063,19,0,2022-06-15_17h53.58.383,annotation,2021.2.3,MacIntel,59.99880002,,
,,,,,,,,,,,,,,,,,-0.455203654,-0.179368557,1,0,0,image_5,0,1,1,34,1,1068,a close up of a person holding a pair of scissors.,M,0,6,MSR-VTT-videoTestVideo_video9799-shot1_0,Images/MSR-VTT-videoTestVideo_video9799-shot1_0/img0.jpg,Images/MSR-VTT-videoTestVideo_video9799-shot1_0/img24.jpg,Images/MSR-VTT-videoTestVideo_video9799-shot1_0/img34.jpg,Images/MSR-VTT-videoTestVideo_video9799-shot1_0/img36.jpg,Images/MSR-VTT-videoTestVideo_video9799-shot1_0/img37.jpg,Images/MSR-VTT-videoTestVideo_video9799-shot1_0/img38.jpg,Images/MSR-VTT-videoTestVideo_video9799-shot1_0/img39.jpg,Images/MSR-VTT-videoTestVideo_video9799-shot1_0/img43.jpg,Images/MSR-VTT-videoTestVideo_video9799-shot1_0/img46.jpg,Images/MSR-VTT-videoTestVideo_video9799-shot1_0/img49.jpg,2025,19,0,2022-06-15_17h53.58.383,annotation,2021.2.3,MacIntel,59.99880002,,
,,,,,,,,,,,,,,,,,-0.462583822,-0.204653252,1,0,0,image_5,0,2,2,17,1,1544,A baby sitting on top of a couch next to a bookshelf.,M,0,7,video-storytelling-videochristmas_5RR_sRzKODA-shot30_8,Images/video-storytelling-videochristmas_5RR_sRzKODA-shot30_8/img426.jpg,Images/video-storytelling-videochristmas_5RR_sRzKODA-shot30_8/img430.jpg,Images/video-storytelling-videochristmas_5RR_sRzKODA-shot30_8/img431.jpg,Images/video-storytelling-videochristmas_5RR_sRzKODA-shot30_8/img432.jpg,Images/video-storytelling-videochristmas_5RR_sRzKODA-shot30_8/img435.jpg,Images/video-storytelling-videochristmas_5RR_sRzKODA-shot30_8/img436.jpg,Images/video-storytelling-videochristmas_5RR_sRzKODA-shot30_8/img439.jpg,Images/video-storytelling-videochristmas_5RR_sRzKODA-shot30_8/img440.jpg,Images/video-storytelling-videochristmas_5RR_sRzKODA-shot30_8/img445.jpg,Images/video-storytelling-videochristmas_5RR_sRzKODA-shot30_8/img449.jpg,1947,19,0,2022-06-15_17h53.58.383,annotation,2021.2.3,MacIntel,59.99880002,,
,,,,,,,,,,,,,,,,,0.295629069,-0.184192912,1,0,0,image_8,0,3,3,30,1,132,the yellow flower in groom's chest is right below a red flower in the background,H,0,8,video-storytelling-videowedding_Bp8t824h5NE-shot62_7,Images/video-storytelling-videowedding_Bp8t824h5NE-shot62_7/img1128.jpg,Images/video-storytelling-videowedding_Bp8t824h5NE-shot62_7/img1139.jpg,Images/video-storytelling-videowedding_Bp8t824h5NE-shot62_7/img1159.jpg,Images/video-storytelling-videowedding_Bp8t824h5NE-shot62_7/img1170.jpg,Images/video-storytelling-videowedding_Bp8t824h5NE-shot62_7/img1173.jpg,Images/video-storytelling-videowedding_Bp8t824h5NE-shot62_7/img1176.jpg,Images/video-storytelling-videowedding_Bp8t824h5NE-shot62_7/img1180.jpg,Images/video-storytelling-videowedding_Bp8t824h5NE-shot62_7/img1183.jpg,Images/video-storytelling-videowedding_Bp8t824h5NE-shot62_7/img1187.jpg,Images/video-storytelling-videowedding_Bp8t824h5NE-shot62_7/img1191.jpg,704,19,0,2022-06-15_17h53.58.383,annotation,2021.2.3,MacIntel,59.99880002,,
,,,,,,,,,,,,,,,,,-0.035874905,0.111279704,1,0,0,image_2,0,4,4,58,1,0,Pair of black gloves,H,,2,open-images-510_3a241cb30d6e5319,Checks/check1/open-images-225_1442c0d0ef23d58bimg3.jpg,Checks/check1/open-images-2759_3a42708fe77398b7img8.jpg,Checks/check1/open-images-510_3a241cb30d6e5319img2.jpg,Checks/check1/open-images-2209_02c98146fb93ff17img1.jpg,Checks/check1/open-images-1553_0f128317e56a9d2fimg9.jpg,Checks/check1/open-images-2666_044d7c6d11e6b493img8.jpg,Checks/check1/open-images-2880_159294646083f545img4.jpg,Checks/check1/open-images-609_2dc0baa993a2bd25img5.jpg,Checks/check1/open-images-1854_2b15616b4f1080e7img2.jpg,Checks/check1/open-images-1435_1b0ce31951048765img8.jpg,,,1,2022-06-15_17h53.58.383,annotation,2021.2.3,MacIntel,59.99880002,,
,,,,,,,,,,,,,,,,,0.281804064,0.139650743,1,0,0,image_3,0,5,5,36,1,1655,A woman standing in front of a stove cooking food.,M,1,4,YouCook-video0063-shot37_0,Images/YouCook-video0063-shot37_0/img0.jpg,Images/YouCook-video0063-shot37_0/img13.jpg,Images/YouCook-video0063-shot37_0/img18.jpg,Images/YouCook-video0063-shot37_0/img27.jpg,Images/YouCook-video0063-shot37_0/img45.jpg,Images/YouCook-video0063-shot37_0/img75.jpg,Images/YouCook-video0063-shot37_0/img95.jpg,Images/YouCook-video0063-shot37_0/img169.jpg,Images/YouCook-video0063-shot37_0/img192.jpg,Images/YouCook-video0063-shot37_0/img232.jpg,1676,19,0,2022-06-15_17h53.58.383,annotation,2021.2.3,MacIntel,59.99880002,,
,,,,,,,,,,,,,,,,,-0.169693264,-0.142550863,1,0,0,image_6,0,6,6,39,1,1514,A photo of a tennis rack and tennis ball in a bathroom.,M,0,3,MSR-VTT-videoTestVideo_video7622-shot4_1,Images/MSR-VTT-videoTestVideo_video7622-shot4_1/img39.jpg,Images/MSR-VTT-videoTestVideo_video7622-shot4_1/img43.jpg,Images/MSR-VTT-videoTestVideo_video7622-shot4_1/img54.jpg,Images/MSR-VTT-videoTestVideo_video7622-shot4_1/img60.jpg,Images/MSR-VTT-videoTestVideo_video7622-shot4_1/img61.jpg,Images/MSR-VTT-videoTestVideo_video7622-shot4_1/img66.jpg,Images/MSR-VTT-videoTestVideo_video7622-shot4_1/img71.jpg,Images/MSR-VTT-videoTestVideo_video7622-shot4_1/img80.jpg,Images/MSR-VTT-videoTestVideo_video7622-shot4_1/img82.jpg,Images/MSR-VTT-videoTestVideo_video7622-shot4_1/img87.jpg,255,19,0,2022-06-15_17h53.58.383,annotation,2021.2.3,MacIntel,59.99880002,,
,,,,,,,,,,,,,,,,,0.278701104,0.153960368,1,0,0,image_3,0,7,7,53,1,383,The woman on the right looks forward. The girl holding the present has the present level and is sitting level as well.,H,0,3,video-storytelling-videochristmas_5RR_sRzKODA-shot21_5,Images/video-storytelling-videochristmas_5RR_sRzKODA-shot21_5/img167.jpg,Images/video-storytelling-videochristmas_5RR_sRzKODA-shot21_5/img171.jpg,Images/video-storytelling-videochristmas_5RR_sRzKODA-shot21_5/img173.jpg,Images/video-storytelling-videochristmas_5RR_sRzKODA-shot21_5/img174.jpg,Images/video-storytelling-videochristmas_5RR_sRzKODA-shot21_5/img176.jpg,Images/video-storytelling-videochristmas_5RR_sRzKODA-shot21_5/img178.jpg,Images/video-storytelling-videochristmas_5RR_sRzKODA-shot21_5/img180.jpg,Images/video-storytelling-videochristmas_5RR_sRzKODA-shot21_5/img181.jpg,Images/video-storytelling-videochristmas_5RR_sRzKODA-shot21_5/img182.jpg,Images/video-storytelling-videochristmas_5RR_sRzKODA-shot21_5/img184.jpg,1052,19,0,2022-06-15_17h53.58.383,annotation,2021.2.3,MacIntel,59.99880002,,
,,,,,,,,,,,,,,,,,0.515863851,0.095530362,1,0,0,image_4,0,8,8,23,1,276,You can't see the shoes on the girls but you can see their legs. ,H,0,4,MSR-VTT-videoTestVideo_video7848-shot1_0,Images/MSR-VTT-videoTestVideo_video7848-shot1_0/img0.jpg,Images/MSR-VTT-videoTestVideo_video7848-shot1_0/img28.jpg,Images/MSR-VTT-videoTestVideo_video7848-shot1_0/img49.jpg,Images/MSR-VTT-videoTestVideo_video7848-shot1_0/img74.jpg,Images/MSR-VTT-videoTestVideo_video7848-shot1_0/img101.jpg,Images/MSR-VTT-videoTestVideo_video7848-shot1_0/img118.jpg,Images/MSR-VTT-videoTestVideo_video7848-shot1_0/img130.jpg,Images/MSR-VTT-videoTestVideo_video7848-shot1_0/img143.jpg,Images/MSR-VTT-videoTestVideo_video7848-shot1_0/img151.jpg,Images/MSR-VTT-videoTestVideo_video7848-shot1_0/img154.jpg,945,19,0,2022-06-15_17h53.58.383,annotation,2021.2.3,MacIntel,59.99880002,,
,,,,,,,,,,,,,,,,,0.24258016,-0.203277656,1,0,0,image_8,0,9,9,11,1,164,The woman has three fingers on her wrist while her pinky finger is just barely touching it.  The image is pretty clear and not blurry. ,H,0,8,MSR-VTT-videoTestVideo_video9550-shot1_0,Images/MSR-VTT-videoTestVideo_video9550-shot1_0/img0.jpg,Images/MSR-VTT-videoTestVideo_video9550-shot1_0/img13.jpg,Images/MSR-VTT-videoTestVideo_video9550-shot1_0/img25.jpg,Images/MSR-VTT-videoTestVideo_video9550-shot1_0/img37.jpg,Images/MSR-VTT-videoTestVideo_video9550-shot1_0/img44.jpg,Images/MSR-VTT-videoTestVideo_video9550-shot1_0/img70.jpg,Images/MSR-VTT-videoTestVideo_video9550-shot1_0/img90.jpg,Images/MSR-VTT-videoTestVideo_video9550-shot1_0/img95.jpg,Images/MSR-VTT-videoTestVideo_video9550-shot1_0/img98.jpg,Images/MSR-VTT-videoTestVideo_video9550-shot1_0/img103.jpg,1964,19,0,2022-06-15_17h53.58.383,annotation,2021.2.3,MacIntel,59.99880002,,
,,,,,,,,,,,,,,,,,-0.187673204,0.137689853,1,0,0,image_1,0,10,10,10,1,1653,A woman sitting on a couch in front of a laptop.,M,0,3,video-storytelling-videochristmas_5RR_sRzKODA-shot21_0,Images/video-storytelling-videochristmas_5RR_sRzKODA-shot21_0/img0.jpg,Images/video-storytelling-videochristmas_5RR_sRzKODA-shot21_0/img3.jpg,Images/video-storytelling-videochristmas_5RR_sRzKODA-shot21_0/img5.jpg,Images/video-storytelling-videochristmas_5RR_sRzKODA-shot21_0/img12.jpg,Images/video-storytelling-videochristmas_5RR_sRzKODA-shot21_0/img16.jpg,Images/video-storytelling-videochristmas_5RR_sRzKODA-shot21_0/img20.jpg,Images/video-storytelling-videochristmas_5RR_sRzKODA-shot21_0/img22.jpg,Images/video-storytelling-videochristmas_5RR_sRzKODA-shot21_0/img30.jpg,Images/video-storytelling-videochristmas_5RR_sRzKODA-shot21_0/img50.jpg,Images/video-storytelling-videochristmas_5RR_sRzKODA-shot21_0/img52.jpg,1699,19,0,2022-06-15_17h53.58.383,annotation,2021.2.3,MacIntel,59.99880002,,
,,,,,,,,,,,,,,,,,-0.02198466,-0.167648112,1,0,0,image_7,0,11,11,44,1,338,The boy has a surprised expression and is holding something horizontally in his left hand. Most of that hand is cut off by the right edge. The bat is almost touching the left edge.,H,0,7,video-storytelling-videobirthday__amwPjAcoC8-shot48_0,Images/video-storytelling-videobirthday__amwPjAcoC8-shot48_0/img0.jpg,Images/video-storytelling-videobirthday__amwPjAcoC8-shot48_0/img3.jpg,Images/video-storytelling-videobirthday__amwPjAcoC8-shot48_0/img5.jpg,Images/video-storytelling-videobirthday__amwPjAcoC8-shot48_0/img6.jpg,Images/video-storytelling-videobirthday__amwPjAcoC8-shot48_0/img8.jpg,Images/video-storytelling-videobirthday__amwPjAcoC8-shot48_0/img11.jpg,Images/video-storytelling-videobirthday__amwPjAcoC8-shot48_0/img15.jpg,Images/video-storytelling-videobirthday__amwPjAcoC8-shot48_0/img18.jpg,Images/video-storytelling-videobirthday__amwPjAcoC8-shot48_0/img20.jpg,Images/video-storytelling-videobirthday__amwPjAcoC8-shot48_0/img24.jpg,1826,19,0,2022-06-15_17h53.58.383,annotation,2021.2.3,MacIntel,59.99880002,,
,,,,,,,,,,,,,,,,,-0.199324544,-0.178598022,1,0,0,image_6,0,12,12,9,1,1362,A man with a beard standing in a room.,M,0,6,MSR-VTT-videoTestVideo_video8771-shot0_0,Images/MSR-VTT-videoTestVideo_video8771-shot0_0/img0.jpg,Images/MSR-VTT-videoTestVideo_video8771-shot0_0/img5.jpg,Images/MSR-VTT-videoTestVideo_video8771-shot0_0/img6.jpg,Images/MSR-VTT-videoTestVideo_video8771-shot0_0/img7.jpg,Images/MSR-VTT-videoTestVideo_video8771-shot0_0/img9.jpg,Images/MSR-VTT-videoTestVideo_video8771-shot0_0/img11.jpg,Images/MSR-VTT-videoTestVideo_video8771-shot0_0/img13.jpg,Images/MSR-VTT-videoTestVideo_video8771-shot0_0/img15.jpg,Images/MSR-VTT-videoTestVideo_video8771-shot0_0/img17.jpg,Images/MSR-VTT-videoTestVideo_video8771-shot0_0/img22.jpg,691,19,0,2022-06-15_17h53.58.383,annotation,2021.2.3,MacIntel,59.99880002,,
,,,,,,,,,,,,,,,,,0.293474731,-0.215285034,1,0,0,image_8,0,13,13,18,1,919,"The middle slice of the pepper, on the cutting board, is being grabbed.",H,0,8,YouCook-video0034-shot16_2,Images/YouCook-video0034-shot16_2/img275.jpg,Images/YouCook-video0034-shot16_2/img280.jpg,Images/YouCook-video0034-shot16_2/img291.jpg,Images/YouCook-video0034-shot16_2/img301.jpg,Images/YouCook-video0034-shot16_2/img338.jpg,Images/YouCook-video0034-shot16_2/img344.jpg,Images/YouCook-video0034-shot16_2/img347.jpg,Images/YouCook-video0034-shot16_2/img350.jpg,Images/YouCook-video0034-shot16_2/img354.jpg,Images/YouCook-video0034-shot16_2/img367.jpg,411,19,0,2022-06-15_17h53.58.383,annotation,2021.2.3,MacIntel,59.99880002,,
,,,,,,,,,,,,,,,,,-0.247939046,0.116801622,1,0,0,image_1,0,14,14,40,1,1721,A man on a basketball court with a fan on the other side of the court.,M,1,3,MSR-VTT-videoTestVideo_video7490-shot3_0,Images/MSR-VTT-videoTestVideo_video7490-shot3_0/img0.jpg,Images/MSR-VTT-videoTestVideo_video7490-shot3_0/img3.jpg,Images/MSR-VTT-videoTestVideo_video7490-shot3_0/img6.jpg,Images/MSR-VTT-videoTestVideo_video7490-shot3_0/img10.jpg,Images/MSR-VTT-videoTestVideo_video7490-shot3_0/img12.jpg,Images/MSR-VTT-videoTestVideo_video7490-shot3_0/img15.jpg,Images/MSR-VTT-videoTestVideo_video7490-shot3_0/img18.jpg,Images/MSR-VTT-videoTestVideo_video7490-shot3_0/img23.jpg,Images/MSR-VTT-videoTestVideo_video7490-shot3_0/img25.jpg,Images/MSR-VTT-videoTestVideo_video7490-shot3_0/img29.jpg,36,19,0,2022-06-15_17h53.58.383,annotation,2021.2.3,MacIntel,59.99880002,,
,,,,,,,,,,,,,,,,,-0.215668877,0.113861321,1,0,0,image_1,0,15,15,16,1,35,"The woman's head rests on her hand and her eyes are mid-blink, almost entirely closed",H,1,1,video-storytelling-videocamping_dBXYM3dQTSo-shot75_2,Images/video-storytelling-videocamping_dBXYM3dQTSo-shot75_2/img352.jpg,Images/video-storytelling-videocamping_dBXYM3dQTSo-shot75_2/img380.jpg,Images/video-storytelling-videocamping_dBXYM3dQTSo-shot75_2/img388.jpg,Images/video-storytelling-videocamping_dBXYM3dQTSo-shot75_2/img404.jpg,Images/video-storytelling-videocamping_dBXYM3dQTSo-shot75_2/img410.jpg,Images/video-storytelling-videocamping_dBXYM3dQTSo-shot75_2/img427.jpg,Images/video-storytelling-videocamping_dBXYM3dQTSo-shot75_2/img441.jpg,Images/video-storytelling-videocamping_dBXYM3dQTSo-shot75_2/img481.jpg,Images/video-storytelling-videocamping_dBXYM3dQTSo-shot75_2/img503.jpg,Images/video-storytelling-videocamping_dBXYM3dQTSo-shot75_2/img531.jpg,1347,19,0,2022-06-15_17h53.58.383,annotation,2021.2.3,MacIntel,59.99880002,,
,,,,,,,,,,,,,,,,,0.448601888,-0.199726698,1,0,0,image_9,0,16,16,14,1,435,"lower part of a folding table in the middle of the picture, with no other moving object in the picture",H,0,9,MSR-VTT-videoTestVideo_video8867-shot1_2,Images/MSR-VTT-videoTestVideo_video8867-shot1_2/img67.jpg,Images/MSR-VTT-videoTestVideo_video8867-shot1_2/img70.jpg,Images/MSR-VTT-videoTestVideo_video8867-shot1_2/img72.jpg,Images/MSR-VTT-videoTestVideo_video8867-shot1_2/img76.jpg,Images/MSR-VTT-videoTestVideo_video8867-shot1_2/img77.jpg,Images/MSR-VTT-videoTestVideo_video8867-shot1_2/img78.jpg,Images/MSR-VTT-videoTestVideo_video8867-shot1_2/img79.jpg,Images/MSR-VTT-videoTestVideo_video8867-shot1_2/img82.jpg,Images/MSR-VTT-videoTestVideo_video8867-shot1_2/img83.jpg,Images/MSR-VTT-videoTestVideo_video8867-shot1_2/img90.jpg,1636,19,0,2022-06-15_17h53.58.383,annotation,2021.2.3,MacIntel,59.99880002,,
,,,,,,,,,,,,,,,,,0.021860352,0.098883362,1,0,0,image_2,0,17,17,55,1,1274,A young man standing in a room holding a video game controller.,M,0,8,MSR-VTT-videoTestVideo_video8237-shot1_4,Images/MSR-VTT-videoTestVideo_video8237-shot1_4/img135.jpg,Images/MSR-VTT-videoTestVideo_video8237-shot1_4/img137.jpg,Images/MSR-VTT-videoTestVideo_video8237-shot1_4/img140.jpg,Images/MSR-VTT-videoTestVideo_video8237-shot1_4/img143.jpg,Images/MSR-VTT-videoTestVideo_video8237-shot1_4/img145.jpg,Images/MSR-VTT-videoTestVideo_video8237-shot1_4/img149.jpg,Images/MSR-VTT-videoTestVideo_video8237-shot1_4/img152.jpg,Images/MSR-VTT-videoTestVideo_video8237-shot1_4/img155.jpg,Images/MSR-VTT-videoTestVideo_video8237-shot1_4/img156.jpg,Images/MSR-VTT-videoTestVideo_video8237-shot1_4/img160.jpg,1443,19,0,2022-06-15_17h53.58.383,annotation,2021.2.3,MacIntel,59.99880002,,
,,,,,,,,,,,,,,,,,-0.199335056,-0.165496555,1,0,0,image_6,0,18,18,24,1,836,The metal wire is inline with the hands.,H,0,6,MSR-VTT-videoTestVideo_video9723-shot1_1,Images/MSR-VTT-videoTestVideo_video9723-shot1_1/img47.jpg,Images/MSR-VTT-videoTestVideo_video9723-shot1_1/img51.jpg,Images/MSR-VTT-videoTestVideo_video9723-shot1_1/img70.jpg,Images/MSR-VTT-videoTestVideo_video9723-shot1_1/img84.jpg,Images/MSR-VTT-videoTestVideo_video9723-shot1_1/img147.jpg,Images/MSR-VTT-videoTestVideo_video9723-shot1_1/img157.jpg,Images/MSR-VTT-videoTestVideo_video9723-shot1_1/img160.jpg,Images/MSR-VTT-videoTestVideo_video9723-shot1_1/img173.jpg,Images/MSR-VTT-videoTestVideo_video9723-shot1_1/img175.jpg,Images/MSR-VTT-videoTestVideo_video9723-shot1_1/img183.jpg,765,19,0,2022-06-15_17h53.58.383,annotation,2021.2.3,MacIntel,59.99880002,,
,,,,,,,,,,,,,,,,,0.028220825,0.194928657,1,0,0,image_2,0,19,19,61,1,3,A grey elephant with golden leaves on it. ,H,,2,open-images-1745_0ed62fe71809b2f5,Checks/check4/open-images-2609_3f72daeb23764ecfimg6.jpg,Checks/check4/open-images-1928_60679e2899870e08img1.jpg,Checks/check4/open-images-1745_0ed62fe71809b2f5img2.jpg,Checks/check4/open-images-1811_9ae6351c7f7565edimg0.jpg,Checks/check4/open-images-1721_6f04da11945ea492img3.jpg,Checks/check4/open-images-1907_5f9be3e4ea5e22c7img2.jpg,Checks/check4/open-images-580_0ddffb9c25141999img1.jpg,Checks/check4/open-images-2924_0645dcbcf998fed9img3.jpg,Checks/check4/open-images-869_856ecbcb5faf76e3img8.jpg,Checks/check4/open-images-250_02039517e63a91fbimg1.jpg,,,1,2022-06-15_17h53.58.383,annotation,2021.2.3,MacIntel,59.99880002,,
,,,,,,,,,,,,,,,,,0.245378961,0.129595879,1,0,0,image_3,0,20,20,45,1,379,The top hand has just made a move downward.  The thumb on the right hand appears to be touching the metal piece on the belt.,H,0,2,video-storytelling-videocamping_EytINruY3-U-shot49_0,Images/video-storytelling-videocamping_EytINruY3-U-shot49_0/img0.jpg,Images/video-storytelling-videocamping_EytINruY3-U-shot49_0/img5.jpg,Images/video-storytelling-videocamping_EytINruY3-U-shot49_0/img41.jpg,Images/video-storytelling-videocamping_EytINruY3-U-shot49_0/img42.jpg,Images/video-storytelling-videocamping_EytINruY3-U-shot49_0/img43.jpg,Images/video-storytelling-videocamping_EytINruY3-U-shot49_0/img49.jpg,Images/video-storytelling-videocamping_EytINruY3-U-shot49_0/img59.jpg,Images/video-storytelling-videocamping_EytINruY3-U-shot49_0/img84.jpg,Images/video-storytelling-videocamping_EytINruY3-U-shot49_0/img103.jpg,Images/video-storytelling-videocamping_EytINruY3-U-shot49_0/img105.jpg,316,19,0,2022-06-15_17h53.58.383,annotation,2021.2.3,MacIntel,59.99880002,,
,,,,,,,,,,,,,,,,,-0.534059499,0.17624627,1,0,0,image_0,0,21,21,51,1,83,A monkey climbs a building in the middle of a movie screen,H,0,0,MSR-VTT-videoTestVideo_video7650-shot1_0,Images/MSR-VTT-videoTestVideo_video7650-shot1_0/img0.jpg,Images/MSR-VTT-videoTestVideo_video7650-shot1_0/img7.jpg,Images/MSR-VTT-videoTestVideo_video7650-shot1_0/img8.jpg,Images/MSR-VTT-videoTestVideo_video7650-shot1_0/img9.jpg,Images/MSR-VTT-videoTestVideo_video7650-shot1_0/img11.jpg,Images/MSR-VTT-videoTestVideo_video7650-shot1_0/img13.jpg,Images/MSR-VTT-videoTestVideo_video7650-shot1_0/img17.jpg,Images/MSR-VTT-videoTestVideo_video7650-shot1_0/img19.jpg,Images/MSR-VTT-videoTestVideo_video7650-shot1_0/img22.jpg,Images/MSR-VTT-videoTestVideo_video7650-shot1_0/img51.jpg,1573,19,0,2022-06-15_17h53.58.383,annotation,2021.2.3,MacIntel,59.99880002,,
,,,,,,,,,,,,,,,,,-0.276211616,-0.110986735,1,0,0,image_6,0,22,22,29,1,705,There is a referee on the front left side of the picture. You can see the one hand and fingers and the inner palm of the hand. ,H,0,6,MSR-VTT-videoTestVideo_video8309-shot1_0,Images/MSR-VTT-videoTestVideo_video8309-shot1_0/img4.jpg,Images/MSR-VTT-videoTestVideo_video8309-shot1_0/img102.jpg,Images/MSR-VTT-videoTestVideo_video8309-shot1_0/img172.jpg,Images/MSR-VTT-videoTestVideo_video8309-shot1_0/img201.jpg,Images/MSR-VTT-videoTestVideo_video8309-shot1_0/img206.jpg,Images/MSR-VTT-videoTestVideo_video8309-shot1_0/img221.jpg,Images/MSR-VTT-videoTestVideo_video8309-shot1_0/img226.jpg,Images/MSR-VTT-videoTestVideo_video8309-shot1_0/img259.jpg,Images/MSR-VTT-videoTestVideo_video8309-shot1_0/img281.jpg,Images/MSR-VTT-videoTestVideo_video8309-shot1_0/img334.jpg,1665,19,0,2022-06-15_17h53.58.383,annotation,2021.2.3,MacIntel,59.99880002,,
,,,,,,,,,,,,,,,,,-0.454225735,-0.151996731,1,0,0,image_5,0,23,23,59,1,1,The only picture of a hawk.  It is looking to the left.  You see lots of branches and darker blue sky. ,H,,5,open-images-958_686caac9c5b322e7,Checks/check2/open-images-2603_1b5152f01f0093e7img3.jpg,Checks/check2/open-images-1836_069810916ce5d675img8.jpg,Checks/check2/open-images-974_0748fdedc4bf8b7bimg2.jpg,Checks/check2/open-images-617_01fb725fb1aa7b04img6.jpg,Checks/check2/open-images-507_047769e1f977cd97img2.jpg,Checks/check2/open-images-958_686caac9c5b322e7img5.jpg,Checks/check2/open-images-1278_21851d9bf5dc05c9img7.jpg,Checks/check2/open-images-2424_05f04546e01499f2img0.jpg,Checks/check2/open-images-1529_1442b11a10a6aeadimg3.jpg,Checks/check2/open-images-514_2c523ddedc2561d4img1.jpg,,,1,2022-06-15_17h53.58.383,annotation,2021.2.3,MacIntel,59.99880002,,
,,,,,,,,,,,,,,,,,0.027708469,0.102472602,1,0,0,image_2,0,24,24,20,1,1312,A woman holding an umbrella in front of a building.,M,0,0,video-storytelling-videowedding_46xhFCXBMJs-shot62_0,Images/video-storytelling-videowedding_46xhFCXBMJs-shot62_0/img0.jpg,Images/video-storytelling-videowedding_46xhFCXBMJs-shot62_0/img26.jpg,Images/video-storytelling-videowedding_46xhFCXBMJs-shot62_0/img41.jpg,Images/video-storytelling-videowedding_46xhFCXBMJs-shot62_0/img50.jpg,Images/video-storytelling-videowedding_46xhFCXBMJs-shot62_0/img71.jpg,Images/video-storytelling-videowedding_46xhFCXBMJs-shot62_0/img76.jpg,Images/video-storytelling-videowedding_46xhFCXBMJs-shot62_0/img78.jpg,Images/video-storytelling-videowedding_46xhFCXBMJs-shot62_0/img79.jpg,Images/video-storytelling-videowedding_46xhFCXBMJs-shot62_0/img81.jpg,Images/video-storytelling-videowedding_46xhFCXBMJs-shot62_0/img85.jpg,1523,19,0,2022-06-15_17h53.58.383,annotation,2021.2.3,MacIntel,59.99880002,,
,,,,,,,,,,,,,,,,,-0.48257097,-0.183937785,1,0,0,image_5,0,25,25,5,1,376,The view has just changed to an arm that is visible but no fingers are seen.  ,H,1,5,MSR-VTT-videoTestVideo_video9687-shot0_0,Images/MSR-VTT-videoTestVideo_video9687-shot0_0/img0.jpg,Images/MSR-VTT-videoTestVideo_video9687-shot0_0/img8.jpg,Images/MSR-VTT-videoTestVideo_video9687-shot0_0/img9.jpg,Images/MSR-VTT-videoTestVideo_video9687-shot0_0/img11.jpg,Images/MSR-VTT-videoTestVideo_video9687-shot0_0/img14.jpg,Images/MSR-VTT-videoTestVideo_video9687-shot0_0/img20.jpg,Images/MSR-VTT-videoTestVideo_video9687-shot0_0/img21.jpg,Images/MSR-VTT-videoTestVideo_video9687-shot0_0/img31.jpg,Images/MSR-VTT-videoTestVideo_video9687-shot0_0/img33.jpg,Images/MSR-VTT-videoTestVideo_video9687-shot0_0/img35.jpg,535,19,0,2022-06-15_17h53.58.383,annotation,2021.2.3,MacIntel,59.99880002,,
,,,,,,,,,,,,,,,,,-0.220634766,0.102053189,1,0,0,image_1,0,26,26,21,1,2017,A little boy playing with a toy on the floor.,M,0,7,video-storytelling-videobirthday__amwPjAcoC8-shot37_0,Images/video-storytelling-videobirthday__amwPjAcoC8-shot37_0/img0.jpg,Images/video-storytelling-videobirthday__amwPjAcoC8-shot37_0/img3.jpg,Images/video-storytelling-videobirthday__amwPjAcoC8-shot37_0/img8.jpg,Images/video-storytelling-videobirthday__amwPjAcoC8-shot37_0/img25.jpg,Images/video-storytelling-videobirthday__amwPjAcoC8-shot37_0/img31.jpg,Images/video-storytelling-videobirthday__amwPjAcoC8-shot37_0/img33.jpg,Images/video-storytelling-videobirthday__amwPjAcoC8-shot37_0/img34.jpg,Images/video-storytelling-videobirthday__amwPjAcoC8-shot37_0/img36.jpg,Images/video-storytelling-videobirthday__amwPjAcoC8-shot37_0/img40.jpg,Images/video-storytelling-videobirthday__amwPjAcoC8-shot37_0/img43.jpg,940,19,0,2022-06-15_17h53.58.383,annotation,2021.2.3,MacIntel,59.99880002,,
,,,,,,,,,,,,,,,,,-0.014724121,-0.150447388,1,0,0,image_7,0,27,27,48,1,1330,A child holding a bowl of toothbrushes in front of a bowl of toothbrushes.,M,0,5,MSR-VTT-videoTestVideo_video7561-shot1_0,Images/MSR-VTT-videoTestVideo_video7561-shot1_0/img0.jpg,Images/MSR-VTT-videoTestVideo_video7561-shot1_0/img5.jpg,Images/MSR-VTT-videoTestVideo_video7561-shot1_0/img13.jpg,Images/MSR-VTT-videoTestVideo_video7561-shot1_0/img33.jpg,Images/MSR-VTT-videoTestVideo_video7561-shot1_0/img38.jpg,Images/MSR-VTT-videoTestVideo_video7561-shot1_0/img46.jpg,Images/MSR-VTT-videoTestVideo_video7561-shot1_0/img53.jpg,Images/MSR-VTT-videoTestVideo_video7561-shot1_0/img62.jpg,Images/MSR-VTT-videoTestVideo_video7561-shot1_0/img75.jpg,Images/MSR-VTT-videoTestVideo_video7561-shot1_0/img81.jpg,476,19,0,2022-06-15_17h53.58.383,annotation,2021.2.3,MacIntel,59.99880002,,
,,,,,,,,,,,,,,,,,0.284855754,-0.127789578,1,0,0,image_8,0,28,28,56,1,227,Two fingers are covering the man in blue in the back.,H,0,8,MSR-VTT-videoTestVideo_video9875-shot6_0,Images/MSR-VTT-videoTestVideo_video9875-shot6_0/img0.jpg,Images/MSR-VTT-videoTestVideo_video9875-shot6_0/img4.jpg,Images/MSR-VTT-videoTestVideo_video9875-shot6_0/img9.jpg,Images/MSR-VTT-videoTestVideo_video9875-shot6_0/img11.jpg,Images/MSR-VTT-videoTestVideo_video9875-shot6_0/img16.jpg,Images/MSR-VTT-videoTestVideo_video9875-shot6_0/img26.jpg,Images/MSR-VTT-videoTestVideo_video9875-shot6_0/img32.jpg,Images/MSR-VTT-videoTestVideo_video9875-shot6_0/img40.jpg,Images/MSR-VTT-videoTestVideo_video9875-shot6_0/img44.jpg,Images/MSR-VTT-videoTestVideo_video9875-shot6_0/img57.jpg,1988,19,0,2022-06-15_17h53.58.383,annotation,2021.2.3,MacIntel,59.99880002,,
,,,,,,,,,,,,,,,,,-0.241197645,0.170518358,1,0,0,image_1,0,29,29,62,1,4,A penguin holding a piece of paper with text on it. ,H,,1,open-images-2521_074d6af730ed17a6,Checks/check5/open-images-509_4d8bd994cb8c6eaeimg0.jpg,Checks/check5/open-images-2521_074d6af730ed17a6img1.jpg,Checks/check5/open-images-1365_a00a5fde334ae45aimg4.jpg,Checks/check5/open-images-1602_44092afdeab39e73img6.jpg,Checks/check5/open-images-1032_059f3cdfb85ee0ceimg3.jpg,Checks/check5/open-images-727_25b77fff36adba66img2.jpg,Checks/check5/open-images-2208_0fb92b9978d98575img2.jpg,Checks/check5/open-images-1305_05769e6abb16fdc8img9.jpg,Checks/check5/open-images-2676_052dbf7b4899430bimg1.jpg,Checks/check5/open-images-2569_1e81d79bb796a2dbimg7.jpg,,,1,2022-06-15_17h53.58.383,annotation,2021.2.3,MacIntel,59.99880002,,
,,,,,,,,,,,,,,,,,0.194608019,0.147630615,1,0,0,image_3,0,30,30,13,1,987,Her head is tilted back and you can just see her upper teeth.,H,0,3,MSR-VTT-videoTestVideo_video9189-shot3_0,Images/MSR-VTT-videoTestVideo_video9189-shot3_0/img0.jpg,Images/MSR-VTT-videoTestVideo_video9189-shot3_0/img3.jpg,Images/MSR-VTT-videoTestVideo_video9189-shot3_0/img11.jpg,Images/MSR-VTT-videoTestVideo_video9189-shot3_0/img15.jpg,Images/MSR-VTT-videoTestVideo_video9189-shot3_0/img22.jpg,Images/MSR-VTT-videoTestVideo_video9189-shot3_0/img24.jpg,Images/MSR-VTT-videoTestVideo_video9189-shot3_0/img32.jpg,Images/MSR-VTT-videoTestVideo_video9189-shot3_0/img35.jpg,Images/MSR-VTT-videoTestVideo_video9189-shot3_0/img39.jpg,Images/MSR-VTT-videoTestVideo_video9189-shot3_0/img45.jpg,1296,19,0,2022-06-15_17h53.58.383,annotation,2021.2.3,MacIntel,59.99880002,,
,,,,,,,,,,,,,,,,,0.233975152,-0.136305135,1,0,0,image_8,0,31,31,1,1,892,There is a man just to the left of the person that has the long yellow jacket on whose hands are not blocking any of his own face.  ,H,1,8,MSR-VTT-videoTestVideo_video9469-shot0_3,Images/MSR-VTT-videoTestVideo_video9469-shot0_3/img101.jpg,Images/MSR-VTT-videoTestVideo_video9469-shot0_3/img104.jpg,Images/MSR-VTT-videoTestVideo_video9469-shot0_3/img106.jpg,Images/MSR-VTT-videoTestVideo_video9469-shot0_3/img109.jpg,Images/MSR-VTT-videoTestVideo_video9469-shot0_3/img111.jpg,Images/MSR-VTT-videoTestVideo_video9469-shot0_3/img115.jpg,Images/MSR-VTT-videoTestVideo_video9469-shot0_3/img120.jpg,Images/MSR-VTT-videoTestVideo_video9469-shot0_3/img121.jpg,Images/MSR-VTT-videoTestVideo_video9469-shot0_3/img122.jpg,Images/MSR-VTT-videoTestVideo_video9469-shot0_3/img125.jpg,922,19,0,2022-06-15_17h53.58.383,annotation,2021.2.3,MacIntel,59.99880002,,
,,,,,,,,,,,,,,,,,0.034952325,-0.183813883,1,0,0,image_7,0,32,32,27,1,1497,A person standing in a room with a pink blanket.,M,1,0,MSR-VTT-videoTestVideo_video7663-shot3_0,Images/MSR-VTT-videoTestVideo_video7663-shot3_0/img0.jpg,Images/MSR-VTT-videoTestVideo_video7663-shot3_0/img12.jpg,Images/MSR-VTT-videoTestVideo_video7663-shot3_0/img22.jpg,Images/MSR-VTT-videoTestVideo_video7663-shot3_0/img23.jpg,Images/MSR-VTT-videoTestVideo_video7663-shot3_0/img25.jpg,Images/MSR-VTT-videoTestVideo_video7663-shot3_0/img29.jpg,Images/MSR-VTT-videoTestVideo_video7663-shot3_0/img32.jpg,Images/MSR-VTT-videoTestVideo_video7663-shot3_0/img35.jpg,Images/MSR-VTT-videoTestVideo_video7663-shot3_0/img37.jpg,Images/MSR-VTT-videoTestVideo_video7663-shot3_0/img40.jpg,1466,19,0,2022-06-15_17h53.58.383,annotation,2021.2.3,MacIntel,59.99880002,,
,,,,,,,,,,,,,,,,,0.296692708,-0.168753594,1,0,0,image_8,0,33,33,7,1,1644,a close up of a girl brushing her hair.,M,0,7,MSR-VTT-videoTestVideo_video7996-shot2_0,Images/MSR-VTT-videoTestVideo_video7996-shot2_0/img0.jpg,Images/MSR-VTT-videoTestVideo_video7996-shot2_0/img2.jpg,Images/MSR-VTT-videoTestVideo_video7996-shot2_0/img6.jpg,Images/MSR-VTT-videoTestVideo_video7996-shot2_0/img10.jpg,Images/MSR-VTT-videoTestVideo_video7996-shot2_0/img16.jpg,Images/MSR-VTT-videoTestVideo_video7996-shot2_0/img22.jpg,Images/MSR-VTT-videoTestVideo_video7996-shot2_0/img49.jpg,Images/MSR-VTT-videoTestVideo_video7996-shot2_0/img56.jpg,Images/MSR-VTT-videoTestVideo_video7996-shot2_0/img89.jpg,Images/MSR-VTT-videoTestVideo_video7996-shot2_0/img101.jpg,420,19,0,2022-06-15_17h53.58.383,annotation,2021.2.3,MacIntel,59.99880002,,
,,,,,,,,,,,,,,,,,0.513709852,-0.166679823,1,0,0,image_9,0,34,34,50,1,1718,A person is cooking a loaf of bread on a grill.,M,0,9,video-storytelling-videocamping_dBXYM3dQTSo-shot69_6,Images/video-storytelling-videocamping_dBXYM3dQTSo-shot69_6/img283.jpg,Images/video-storytelling-videocamping_dBXYM3dQTSo-shot69_6/img292.jpg,Images/video-storytelling-videocamping_dBXYM3dQTSo-shot69_6/img300.jpg,Images/video-storytelling-videocamping_dBXYM3dQTSo-shot69_6/img303.jpg,Images/video-storytelling-videocamping_dBXYM3dQTSo-shot69_6/img307.jpg,Images/video-storytelling-videocamping_dBXYM3dQTSo-shot69_6/img311.jpg,Images/video-storytelling-videocamping_dBXYM3dQTSo-shot69_6/img321.jpg,Images/video-storytelling-videocamping_dBXYM3dQTSo-shot69_6/img326.jpg,Images/video-storytelling-videocamping_dBXYM3dQTSo-shot69_6/img332.jpg,Images/video-storytelling-videocamping_dBXYM3dQTSo-shot69_6/img339.jpg,894,19,0,2022-06-15_17h53.58.383,annotation,2021.2.3,MacIntel,59.99880002,,
,,,,,,,,,,,,,,,,,0.250681152,-0.165620524,1,0,0,image_8,0,35,35,31,1,1065,A piece of meat on a plate on a table.,M,0,0,YouCook-video0017-shot2_1,Images/YouCook-video0017-shot2_1/img98.jpg,Images/YouCook-video0017-shot2_1/img100.jpg,Images/YouCook-video0017-shot2_1/img101.jpg,Images/YouCook-video0017-shot2_1/img104.jpg,Images/YouCook-video0017-shot2_1/img105.jpg,Images/YouCook-video0017-shot2_1/img107.jpg,Images/YouCook-video0017-shot2_1/img111.jpg,Images/YouCook-video0017-shot2_1/img116.jpg,Images/YouCook-video0017-shot2_1/img121.jpg,Images/YouCook-video0017-shot2_1/img129.jpg,395,19,0,2022-06-15_17h53.58.383,annotation,2021.2.3,MacIntel,59.99880002,,
,,,,,,,,,,,,,,,,,0.246791382,-0.189367879,1,0,0,image_8,0,36,36,52,1,450,No text is seen at the bottom of the image and no metal spoon is seen.  Only a small circular object is on the napkin. ,H,0,8,MSR-VTT-videoTestVideo_video7973-shot3_0,Images/MSR-VTT-videoTestVideo_video7973-shot3_0/img0.jpg,Images/MSR-VTT-videoTestVideo_video7973-shot3_0/img16.jpg,Images/MSR-VTT-videoTestVideo_video7973-shot3_0/img17.jpg,Images/MSR-VTT-videoTestVideo_video7973-shot3_0/img20.jpg,Images/MSR-VTT-videoTestVideo_video7973-shot3_0/img23.jpg,Images/MSR-VTT-videoTestVideo_video7973-shot3_0/img27.jpg,Images/MSR-VTT-videoTestVideo_video7973-shot3_0/img35.jpg,Images/MSR-VTT-videoTestVideo_video7973-shot3_0/img42.jpg,Images/MSR-VTT-videoTestVideo_video7973-shot3_0/img49.jpg,Images/MSR-VTT-videoTestVideo_video7973-shot3_0/img77.jpg,1361,19,0,2022-06-15_17h53.58.383,annotation,2021.2.3,MacIntel,59.99880002,,
,,,,,,,,,,,,,,,,,0.427763401,-0.159490017,1,0,0,image_9,0,37,37,22,1,966,There is a thumb on the far left touching the bowl of chicken.,H,0,9,MSR-VTT-videoTestVideo_video8776-shot1_0,Images/MSR-VTT-videoTestVideo_video8776-shot1_0/img0.jpg,Images/MSR-VTT-videoTestVideo_video8776-shot1_0/img9.jpg,Images/MSR-VTT-videoTestVideo_video8776-shot1_0/img11.jpg,Images/MSR-VTT-videoTestVideo_video8776-shot1_0/img12.jpg,Images/MSR-VTT-videoTestVideo_video8776-shot1_0/img18.jpg,Images/MSR-VTT-videoTestVideo_video8776-shot1_0/img23.jpg,Images/MSR-VTT-videoTestVideo_video8776-shot1_0/img25.jpg,Images/MSR-VTT-videoTestVideo_video8776-shot1_0/img28.jpg,Images/MSR-VTT-videoTestVideo_video8776-shot1_0/img32.jpg,Images/MSR-VTT-videoTestVideo_video8776-shot1_0/img166.jpg,1963,19,0,2022-06-15_17h53.58.383,annotation,2021.2.3,MacIntel,59.99880002,,
,,,,,,,,,,,,,,,,,0.019550985,-0.133652751,1,0,0,image_7,0,38,38,2,1,65,There are two balloons on a small table. The girl's bent left arm has a small gap in between the bend..,H,1,8,MSR-VTT-videoTestVideo_video7428-shot2_1,Images/MSR-VTT-videoTestVideo_video7428-shot2_1/img31.jpg,Images/MSR-VTT-videoTestVideo_video7428-shot2_1/img35.jpg,Images/MSR-VTT-videoTestVideo_video7428-shot2_1/img41.jpg,Images/MSR-VTT-videoTestVideo_video7428-shot2_1/img45.jpg,Images/MSR-VTT-videoTestVideo_video7428-shot2_1/img50.jpg,Images/MSR-VTT-videoTestVideo_video7428-shot2_1/img53.jpg,Images/MSR-VTT-videoTestVideo_video7428-shot2_1/img56.jpg,Images/MSR-VTT-videoTestVideo_video7428-shot2_1/img60.jpg,Images/MSR-VTT-videoTestVideo_video7428-shot2_1/img65.jpg,Images/MSR-VTT-videoTestVideo_video7428-shot2_1/img66.jpg,1700,19,0,2022-06-15_17h53.58.383,annotation,2021.2.3,MacIntel,59.99880002,,
,,,,,,,,,,,,,,,,,0.526317681,-0.183146769,1,0,0,image_9,0,39,39,60,1,2,Green type writer with a red tape. ,H,,9,open-images-531_0dd4eb59d465a8be,Checks/check3/open-images-503_1ccd6fa641154ebbimg7.jpg,Checks/check3/open-images-1852_00faf52058ad28b8img4.jpg,Checks/check3/open-images-386_1b2e28d6d994603eimg1.jpg,Checks/check3/open-images-471_1121e9f97c200ac0img8.jpg,Checks/check3/open-images-1886_3db71eaddb618934img8.jpg,Checks/check3/open-images-1696_20a4ebf0c0f76b05img6.jpg,Checks/check3/open-images-2447_128483a48e1552f4img6.jpg,Checks/check3/open-images-2994_9965cbf8aa20bda0img2.jpg,Checks/check3/open-images-1068_03d63613107970b3img6.jpg,Checks/check3/open-images-531_0dd4eb59d465a8beimg9.jpg,,,1,2022-06-15_17h53.58.383,annotation,2021.2.3,MacIntel,59.99880002,,
,,,,,,,,,,,,,,,,,-0.422384169,0.089586419,1,0,0,image_0,0,40,40,38,1,1063,A group of people looking at each other in the mirror.,M,0,0,MSR-VTT-videoTestVideo_video9560-shot1_0,Images/MSR-VTT-videoTestVideo_video9560-shot1_0/img0.jpg,Images/MSR-VTT-videoTestVideo_video9560-shot1_0/img6.jpg,Images/MSR-VTT-videoTestVideo_video9560-shot1_0/img11.jpg,Images/MSR-VTT-videoTestVideo_video9560-shot1_0/img16.jpg,Images/MSR-VTT-videoTestVideo_video9560-shot1_0/img23.jpg,Images/MSR-VTT-videoTestVideo_video9560-shot1_0/img30.jpg,Images/MSR-VTT-videoTestVideo_video9560-shot1_0/img46.jpg,Images/MSR-VTT-videoTestVideo_video9560-shot1_0/img56.jpg,Images/MSR-VTT-videoTestVideo_video9560-shot1_0/img69.jpg,Images/MSR-VTT-videoTestVideo_video9560-shot1_0/img73.jpg,1203,19,0,2022-06-15_17h53.58.383,annotation,2021.2.3,MacIntel,59.99880002,,
,,,,,,,,,,,,,,,,,0.060591498,0.159098782,1,0,0,image_2,0,41,41,54,1,1290,A woman sitting in front of a car with a carrot in her hand.,M,0,9,YouCook-video0013-shot13_0,Images/YouCook-video0013-shot13_0/img0.jpg,Images/YouCook-video0013-shot13_0/img8.jpg,Images/YouCook-video0013-shot13_0/img35.jpg,Images/YouCook-video0013-shot13_0/img48.jpg,Images/YouCook-video0013-shot13_0/img53.jpg,Images/YouCook-video0013-shot13_0/img56.jpg,Images/YouCook-video0013-shot13_0/img58.jpg,Images/YouCook-video0013-shot13_0/img59.jpg,Images/YouCook-video0013-shot13_0/img61.jpg,Images/YouCook-video0013-shot13_0/img64.jpg,828,19,0,2022-06-15_17h53.58.383,annotation,2021.2.3,MacIntel,59.99880002,,
,,,,,,,,,,,,,,,,,-0.489229567,0.117809075,1,0,0,image_0,0,42,42,35,1,273,The image is very blurry. The bride's head is about in the center of the picture. The groom's shoulder is overlapping her shoulder and a bit of her side body.,H,0,0,video-storytelling-videowedding_Bp8t824h5NE-shot62_1,Images/video-storytelling-videowedding_Bp8t824h5NE-shot62_1/img141.jpg,Images/video-storytelling-videowedding_Bp8t824h5NE-shot62_1/img145.jpg,Images/video-storytelling-videowedding_Bp8t824h5NE-shot62_1/img156.jpg,Images/video-storytelling-videowedding_Bp8t824h5NE-shot62_1/img174.jpg,Images/video-storytelling-videowedding_Bp8t824h5NE-shot62_1/img187.jpg,Images/video-storytelling-videowedding_Bp8t824h5NE-shot62_1/img189.jpg,Images/video-storytelling-videowedding_Bp8t824h5NE-shot62_1/img190.jpg,Images/video-storytelling-videowedding_Bp8t824h5NE-shot62_1/img192.jpg,Images/video-storytelling-videowedding_Bp8t824h5NE-shot62_1/img196.jpg,Images/video-storytelling-videowedding_Bp8t824h5NE-shot62_1/img198.jpg,246,19,0,2022-06-15_17h53.58.383,annotation,2021.2.3,MacIntel,59.99880002,,
,,,,,,,,,,,,,,,,,-0.506301507,0.142193264,1,0,0,image_0,0,43,43,4,1,1457,A young girl holding a bottle of water next to a snowboard.,M,0,2,video-storytelling-videochristmas_5RR_sRzKODA-shot23_7,Images/video-storytelling-videochristmas_5RR_sRzKODA-shot23_7/img300.jpg,Images/video-storytelling-videochristmas_5RR_sRzKODA-shot23_7/img305.jpg,Images/video-storytelling-videochristmas_5RR_sRzKODA-shot23_7/img307.jpg,Images/video-storytelling-videochristmas_5RR_sRzKODA-shot23_7/img311.jpg,Images/video-storytelling-videochristmas_5RR_sRzKODA-shot23_7/img313.jpg,Images/video-storytelling-videochristmas_5RR_sRzKODA-shot23_7/img317.jpg,Images/video-storytelling-videochristmas_5RR_sRzKODA-shot23_7/img319.jpg,Images/video-storytelling-videochristmas_5RR_sRzKODA-shot23_7/img321.jpg,Images/video-storytelling-videochristmas_5RR_sRzKODA-shot23_7/img326.jpg,Images/video-storytelling-videochristmas_5RR_sRzKODA-shot23_7/img329.jpg,930,19,0,2022-06-15_17h53.58.383,annotation,2021.2.3,MacIntel,59.99880002,,
,,,,,,,,,,,,,,,,,0.502107883,-0.191341553,1,0,0,image_9,0,44,44,41,1,356,The person puts a small brown object completely on the table. ,H,0,8,MSR-VTT-videoTestVideo_video7434-shot1_1,Images/MSR-VTT-videoTestVideo_video7434-shot1_1/img67.jpg,Images/MSR-VTT-videoTestVideo_video7434-shot1_1/img82.jpg,Images/MSR-VTT-videoTestVideo_video7434-shot1_1/img95.jpg,Images/MSR-VTT-videoTestVideo_video7434-shot1_1/img117.jpg,Images/MSR-VTT-videoTestVideo_video7434-shot1_1/img125.jpg,Images/MSR-VTT-videoTestVideo_video7434-shot1_1/img135.jpg,Images/MSR-VTT-videoTestVideo_video7434-shot1_1/img140.jpg,Images/MSR-VTT-videoTestVideo_video7434-shot1_1/img149.jpg,Images/MSR-VTT-videoTestVideo_video7434-shot1_1/img160.jpg,Images/MSR-VTT-videoTestVideo_video7434-shot1_1/img167.jpg,1186,19,0,2022-06-15_17h53.58.383,annotation,2021.2.3,MacIntel,59.99880002,,
,,,,,,,,,,,,,,,,,0.216604818,-0.212951389,1,0,0,image_8,0,45,45,47,1,670,"Only one brown spot is visible on the white animal, towards the very bottom of the image",H,0,8,MSR-VTT-videoTestVideo_video9158-shot1_0,Images/MSR-VTT-videoTestVideo_video9158-shot1_0/img0.jpg,Images/MSR-VTT-videoTestVideo_video9158-shot1_0/img2.jpg,Images/MSR-VTT-videoTestVideo_video9158-shot1_0/img5.jpg,Images/MSR-VTT-videoTestVideo_video9158-shot1_0/img8.jpg,Images/MSR-VTT-videoTestVideo_video9158-shot1_0/img17.jpg,Images/MSR-VTT-videoTestVideo_video9158-shot1_0/img22.jpg,Images/MSR-VTT-videoTestVideo_video9158-shot1_0/img29.jpg,Images/MSR-VTT-videoTestVideo_video9158-shot1_0/img33.jpg,Images/MSR-VTT-videoTestVideo_video9158-shot1_0/img40.jpg,Images/MSR-VTT-videoTestVideo_video9158-shot1_0/img49.jpg,1067,19,0,2022-06-15_17h53.58.383,annotation,2021.2.3,MacIntel,59.99880002,,
,,,,,,,,,,,,,,,,,-0.20883572,0.137813314,1,0,0,image_1,0,46,46,8,1,951,A man has his arm extended behind the head of a person to his right but the hand on his extended arm is not visible,H,0,1,MSR-VTT-videoTestVideo_video9746-shot3_0,Images/MSR-VTT-videoTestVideo_video9746-shot3_0/img0.jpg,Images/MSR-VTT-videoTestVideo_video9746-shot3_0/img6.jpg,Images/MSR-VTT-videoTestVideo_video9746-shot3_0/img11.jpg,Images/MSR-VTT-videoTestVideo_video9746-shot3_0/img13.jpg,Images/MSR-VTT-videoTestVideo_video9746-shot3_0/img17.jpg,Images/MSR-VTT-videoTestVideo_video9746-shot3_0/img21.jpg,Images/MSR-VTT-videoTestVideo_video9746-shot3_0/img29.jpg,Images/MSR-VTT-videoTestVideo_video9746-shot3_0/img35.jpg,Images/MSR-VTT-videoTestVideo_video9746-shot3_0/img39.jpg,Images/MSR-VTT-videoTestVideo_video9746-shot3_0/img43.jpg,1081,19,0,2022-06-15_17h53.58.383,annotation,2021.2.3,MacIntel,59.99880002,,
,,,,,,,,,,,,,,,,,-0.262363146,0.140734558,1,0,0,image_1,0,47,47,57,1,1976,A woman standing next to a railing near a fence.,M,0,1,MSR-VTT-videoTestVideo_video8053-shot1_0,Images/MSR-VTT-videoTestVideo_video8053-shot1_0/img0.jpg,Images/MSR-VTT-videoTestVideo_video8053-shot1_0/img19.jpg,Images/MSR-VTT-videoTestVideo_video8053-shot1_0/img58.jpg,Images/MSR-VTT-videoTestVideo_video8053-shot1_0/img106.jpg,Images/MSR-VTT-videoTestVideo_video8053-shot1_0/img113.jpg,Images/MSR-VTT-videoTestVideo_video8053-shot1_0/img119.jpg,Images/MSR-VTT-videoTestVideo_video8053-shot1_0/img124.jpg,Images/MSR-VTT-videoTestVideo_video8053-shot1_0/img127.jpg,Images/MSR-VTT-videoTestVideo_video8053-shot1_0/img138.jpg,Images/MSR-VTT-videoTestVideo_video8053-shot1_0/img155.jpg,1564,19,0,2022-06-15_17h53.58.383,annotation,2021.2.3,MacIntel,59.99880002,,
,,,,,,,,,,,,,,,,,0.435118408,0.187697584,1,0,0,image_4,0,48,48,25,1,561,The woman on the white sign to the left has everything from her forehead up off frame,H,0,4,MSR-VTT-videoTestVideo_video8454-shot1_1,Images/MSR-VTT-videoTestVideo_video8454-shot1_1/img86.jpg,Images/MSR-VTT-videoTestVideo_video8454-shot1_1/img87.jpg,Images/MSR-VTT-videoTestVideo_video8454-shot1_1/img88.jpg,Images/MSR-VTT-videoTestVideo_video8454-shot1_1/img89.jpg,Images/MSR-VTT-videoTestVideo_video8454-shot1_1/img147.jpg,Images/MSR-VTT-videoTestVideo_video8454-shot1_1/img148.jpg,Images/MSR-VTT-videoTestVideo_video8454-shot1_1/img152.jpg,Images/MSR-VTT-videoTestVideo_video8454-shot1_1/img156.jpg,Images/MSR-VTT-videoTestVideo_video8454-shot1_1/img159.jpg,Images/MSR-VTT-videoTestVideo_video8454-shot1_1/img172.jpg,133,19,0,2022-06-15_17h53.58.383,annotation,2021.2.3,MacIntel,59.99880002,,
,,,,,,,,,,,,,,,,,-0.169260118,-0.159100342,1,0,0,image_6,0,49,49,37,1,847,The man in green has his knees on the ground and is leaning back.  His left hand has just touched the ground. ,H,1,6,MSR-VTT-videoTestVideo_video9823-shot3_1,Images/MSR-VTT-videoTestVideo_video9823-shot3_1/img17.jpg,Images/MSR-VTT-videoTestVideo_video9823-shot3_1/img18.jpg,Images/MSR-VTT-videoTestVideo_video9823-shot3_1/img19.jpg,Images/MSR-VTT-videoTestVideo_video9823-shot3_1/img20.jpg,Images/MSR-VTT-videoTestVideo_video9823-shot3_1/img21.jpg,Images/MSR-VTT-videoTestVideo_video9823-shot3_1/img24.jpg,Images/MSR-VTT-videoTestVideo_video9823-shot3_1/img27.jpg,Images/MSR-VTT-videoTestVideo_video9823-shot3_1/img28.jpg,Images/MSR-VTT-videoTestVideo_video9823-shot3_1/img30.jpg,Images/MSR-VTT-videoTestVideo_video9823-shot3_1/img31.jpg,521,19,0,2022-06-15_17h53.58.383,annotation,2021.2.3,MacIntel,59.99880002,,
,,,,,,,,,,,,,,,,,0.167490641,-0.206813829,1,0,0,image_8,0,50,50,15,1,1431,Two men standing next to each other in a room.,M,0,4,MSR-VTT-videoTestVideo_video9579-shot1_0,Images/MSR-VTT-videoTestVideo_video9579-shot1_0/img0.jpg,Images/MSR-VTT-videoTestVideo_video9579-shot1_0/img7.jpg,Images/MSR-VTT-videoTestVideo_video9579-shot1_0/img29.jpg,Images/MSR-VTT-videoTestVideo_video9579-shot1_0/img36.jpg,Images/MSR-VTT-videoTestVideo_video9579-shot1_0/img51.jpg,Images/MSR-VTT-videoTestVideo_video9579-shot1_0/img84.jpg,Images/MSR-VTT-videoTestVideo_video9579-shot1_0/img98.jpg,Images/MSR-VTT-videoTestVideo_video9579-shot1_0/img125.jpg,Images/MSR-VTT-videoTestVideo_video9579-shot1_0/img151.jpg,Images/MSR-VTT-videoTestVideo_video9579-shot1_0/img197.jpg,663,19,0,2022-06-15_17h53.58.383,annotation,2021.2.3,MacIntel,59.99880002,,
,,,,,,,,,,,,,,,,,-0.422201945,-0.14377238,1,0,0,image_5,0,51,51,3,1,315,The baby's right hand is not showing. Both hands of the child in the background are showing plainly.,H,0,5,video-storytelling-videochristmas_5RR_sRzKODA-shot30_14,Images/video-storytelling-videochristmas_5RR_sRzKODA-shot30_14/img606.jpg,Images/video-storytelling-videochristmas_5RR_sRzKODA-shot30_14/img612.jpg,Images/video-storytelling-videochristmas_5RR_sRzKODA-shot30_14/img614.jpg,Images/video-storytelling-videochristmas_5RR_sRzKODA-shot30_14/img622.jpg,Images/video-storytelling-videochristmas_5RR_sRzKODA-shot30_14/img629.jpg,Images/video-storytelling-videochristmas_5RR_sRzKODA-shot30_14/img638.jpg,Images/video-storytelling-videochristmas_5RR_sRzKODA-shot30_14/img646.jpg,Images/video-storytelling-videochristmas_5RR_sRzKODA-shot30_14/img650.jpg,Images/video-storytelling-videochristmas_5RR_sRzKODA-shot30_14/img652.jpg,Images/video-storytelling-videochristmas_5RR_sRzKODA-shot30_14/img653.jpg,923,19,0,2022-06-15_17h53.58.383,annotation,2021.2.3,MacIntel,59.99880002,,
,,,,,,,,,,,,,,,,,-0.318653666,0.10531935,1,0,0,image_1,0,52,52,42,1,1535,A group of people standing around a table.,M,1,0,MSR-VTT-videoTestVideo_video7960-shot0_2,Images/MSR-VTT-videoTestVideo_video7960-shot0_2/img80.jpg,Images/MSR-VTT-videoTestVideo_video7960-shot0_2/img81.jpg,Images/MSR-VTT-videoTestVideo_video7960-shot0_2/img83.jpg,Images/MSR-VTT-videoTestVideo_video7960-shot0_2/img86.jpg,Images/MSR-VTT-videoTestVideo_video7960-shot0_2/img91.jpg,Images/MSR-VTT-videoTestVideo_video7960-shot0_2/img92.jpg,Images/MSR-VTT-videoTestVideo_video7960-shot0_2/img94.jpg,Images/MSR-VTT-videoTestVideo_video7960-shot0_2/img96.jpg,Images/MSR-VTT-videoTestVideo_video7960-shot0_2/img97.jpg,Images/MSR-VTT-videoTestVideo_video7960-shot0_2/img98.jpg,2035,19,0,2022-06-15_17h53.58.383,annotation,2021.2.3,MacIntel,59.99880002,,
,,,,,,,,,,,,,,,,,0.326149902,0.106661038,1,0,0,image_3,0,53,53,33,1,22,Goofy's hand is straight up in the air and he's making a fist while riding a smiling horrse.,H,0,3,MSR-VTT-videoTestVideo_video8183-shot0_0,Images/MSR-VTT-videoTestVideo_video8183-shot0_0/img0.jpg,Images/MSR-VTT-videoTestVideo_video8183-shot0_0/img8.jpg,Images/MSR-VTT-videoTestVideo_video8183-shot0_0/img18.jpg,Images/MSR-VTT-videoTestVideo_video8183-shot0_0/img52.jpg,Images/MSR-VTT-videoTestVideo_video8183-shot0_0/img53.jpg,Images/MSR-VTT-videoTestVideo_video8183-shot0_0/img56.jpg,Images/MSR-VTT-videoTestVideo_video8183-shot0_0/img58.jpg,Images/MSR-VTT-videoTestVideo_video8183-shot0_0/img61.jpg,Images/MSR-VTT-videoTestVideo_video8183-shot0_0/img66.jpg,Images/MSR-VTT-videoTestVideo_video8183-shot0_0/img67.jpg,1274,19,0,2022-06-15_17h53.58.383,annotation,2021.2.3,MacIntel,59.99880002,,
,,,,,,,,,,,,,,,,,-0.539272224,0.148336622,1,0,0,image_0,0,54,54,6,1,1423,a close up of a person cutting a piece of fabric.,M,0,2,video-storytelling-videocamping_EytINruY3-U-shot49_0,Images/video-storytelling-videocamping_EytINruY3-U-shot49_0/img0.jpg,Images/video-storytelling-videocamping_EytINruY3-U-shot49_0/img5.jpg,Images/video-storytelling-videocamping_EytINruY3-U-shot49_0/img41.jpg,Images/video-storytelling-videocamping_EytINruY3-U-shot49_0/img42.jpg,Images/video-storytelling-videocamping_EytINruY3-U-shot49_0/img43.jpg,Images/video-storytelling-videocamping_EytINruY3-U-shot49_0/img49.jpg,Images/video-storytelling-videocamping_EytINruY3-U-shot49_0/img59.jpg,Images/video-storytelling-videocamping_EytINruY3-U-shot49_0/img84.jpg,Images/video-storytelling-videocamping_EytINruY3-U-shot49_0/img103.jpg,Images/video-storytelling-videocamping_EytINruY3-U-shot49_0/img105.jpg,802,19,0,2022-06-15_17h53.58.383,annotation,2021.2.3,MacIntel,59.99880002,,
,,,,,,,,,,,,,,,,,0.218280911,-0.173650513,1,0,0,image_8,0,55,55,0,1,2079,A pan filled with food being cooked in the oven.,M,1,7,MSR-VTT-videoTestVideo_video8853-shot1_1,Images/MSR-VTT-videoTestVideo_video8853-shot1_1/img151.jpg,Images/MSR-VTT-videoTestVideo_video8853-shot1_1/img163.jpg,Images/MSR-VTT-videoTestVideo_video8853-shot1_1/img165.jpg,Images/MSR-VTT-videoTestVideo_video8853-shot1_1/img173.jpg,Images/MSR-VTT-videoTestVideo_video8853-shot1_1/img189.jpg,Images/MSR-VTT-videoTestVideo_video8853-shot1_1/img207.jpg,Images/MSR-VTT-videoTestVideo_video8853-shot1_1/img215.jpg,Images/MSR-VTT-videoTestVideo_video8853-shot1_1/img250.jpg,Images/MSR-VTT-videoTestVideo_video8853-shot1_1/img286.jpg,Images/MSR-VTT-videoTestVideo_video8853-shot1_1/img305.jpg,620,19,0,2022-06-15_17h53.58.383,annotation,2021.2.3,MacIntel,59.99880002,,
,,,,,,,,,,,,,,,,,-0.226889716,-0.134227363,1,0,0,image_6,0,56,56,46,1,1844,A woman standing next to a group of people talking on a cell phone.,M,0,8,video-storytelling-videocamping_1OzbiB1TIWI-shot40_8,Images/video-storytelling-videocamping_1OzbiB1TIWI-shot40_8/img445.jpg,Images/video-storytelling-videocamping_1OzbiB1TIWI-shot40_8/img448.jpg,Images/video-storytelling-videocamping_1OzbiB1TIWI-shot40_8/img454.jpg,Images/video-storytelling-videocamping_1OzbiB1TIWI-shot40_8/img463.jpg,Images/video-storytelling-videocamping_1OzbiB1TIWI-shot40_8/img465.jpg,Images/video-storytelling-videocamping_1OzbiB1TIWI-shot40_8/img468.jpg,Images/video-storytelling-videocamping_1OzbiB1TIWI-shot40_8/img473.jpg,Images/video-storytelling-videocamping_1OzbiB1TIWI-shot40_8/img479.jpg,Images/video-storytelling-videocamping_1OzbiB1TIWI-shot40_8/img484.jpg,Images/video-storytelling-videocamping_1OzbiB1TIWI-shot40_8/img489.jpg,1984,19,0,2022-06-15_17h53.58.383,annotation,2021.2.3,MacIntel,59.99880002,,
,,,,,,,,,,,,,,,,,0.509613037,0.20217197,1,0,0,image_4,0,57,57,26,1,1789,A person is fishing underwater in the water.,M,0,8,MSR-VTT-videoTestVideo_video7473-shot11_0,Images/MSR-VTT-videoTestVideo_video7473-shot11_0/img0.jpg,Images/MSR-VTT-videoTestVideo_video7473-shot11_0/img1.jpg,Images/MSR-VTT-videoTestVideo_video7473-shot11_0/img3.jpg,Images/MSR-VTT-videoTestVideo_video7473-shot11_0/img5.jpg,Images/MSR-VTT-videoTestVideo_video7473-shot11_0/img11.jpg,Images/MSR-VTT-videoTestVideo_video7473-shot11_0/img15.jpg,Images/MSR-VTT-videoTestVideo_video7473-shot11_0/img20.jpg,Images/MSR-VTT-videoTestVideo_video7473-shot11_0/img25.jpg,Images/MSR-VTT-videoTestVideo_video7473-shot11_0/img27.jpg,Images/MSR-VTT-videoTestVideo_video7473-shot11_0/img37.jpg,1510,19,0,2022-06-15_17h53.58.383,annotation,2021.2.3,MacIntel,59.99880002,,
,,,,,,,,,,,,,,,,,-0.525551283,-0.164907159,1,0,0,image_5,0,58,58,19,1,771,The man in the green jacket is standing up straight. His body is blocking half of the person in red.,H,0,5,MSR-VTT-videoTestVideo_video8306-shot1_0,Images/MSR-VTT-videoTestVideo_video8306-shot1_0/img0.jpg,Images/MSR-VTT-videoTestVideo_video8306-shot1_0/img2.jpg,Images/MSR-VTT-videoTestVideo_video8306-shot1_0/img6.jpg,Images/MSR-VTT-videoTestVideo_video8306-shot1_0/img15.jpg,Images/MSR-VTT-videoTestVideo_video8306-shot1_0/img22.jpg,Images/MSR-VTT-videoTestVideo_video8306-shot1_0/img39.jpg,Images/MSR-VTT-videoTestVideo_video8306-shot1_0/img54.jpg,Images/MSR-VTT-videoTestVideo_video8306-shot1_0/img68.jpg,Images/MSR-VTT-videoTestVideo_video8306-shot1_0/img86.jpg,Images/MSR-VTT-videoTestVideo_video8306-shot1_0/img94.jpg,971,19,0,2022-06-15_17h53.58.383,annotation,2021.2.3,MacIntel,59.99880002,,
,,,,,,,,,,,,,,,,,0.184129842,-0.18225118,1,0,0,image_8,0,59,59,43,1,1670,A person holding a bowl of hot peppers in a kitchen.,M,0,4,MSR-VTT-videoTestVideo_video7705-shot1_0,Images/MSR-VTT-videoTestVideo_video7705-shot1_0/img0.jpg,Images/MSR-VTT-videoTestVideo_video7705-shot1_0/img3.jpg,Images/MSR-VTT-videoTestVideo_video7705-shot1_0/img7.jpg,Images/MSR-VTT-videoTestVideo_video7705-shot1_0/img11.jpg,Images/MSR-VTT-videoTestVideo_video7705-shot1_0/img12.jpg,Images/MSR-VTT-videoTestVideo_video7705-shot1_0/img15.jpg,Images/MSR-VTT-videoTestVideo_video7705-shot1_0/img19.jpg,Images/MSR-VTT-videoTestVideo_video7705-shot1_0/img25.jpg,Images/MSR-VTT-videoTestVideo_video7705-shot1_0/img32.jpg,Images/MSR-VTT-videoTestVideo_video7705-shot1_0/img36.jpg,662,19,0,2022-06-15_17h53.58.383,annotation,2021.2.3,MacIntel,59.99880002,,
,,,,,,,,,,,,,,,,,-0.426249627,0.12363878,1,0,0,image_0,0,60,60,32,1,488,The woman is holding a spatula in her right hand and it is over the pan on the stovetop.  ,H,0,0,YouCook-video0058-shot9_0,Images/YouCook-video0058-shot9_0/img1.jpg,Images/YouCook-video0058-shot9_0/img41.jpg,Images/YouCook-video0058-shot9_0/img57.jpg,Images/YouCook-video0058-shot9_0/img59.jpg,Images/YouCook-video0058-shot9_0/img64.jpg,Images/YouCook-video0058-shot9_0/img86.jpg,Images/YouCook-video0058-shot9_0/img92.jpg,Images/YouCook-video0058-shot9_0/img121.jpg,Images/YouCook-video0058-shot9_0/img449.jpg,Images/YouCook-video0058-shot9_0/img452.jpg,1196,19,0,2022-06-15_17h53.58.383,annotation,2021.2.3,MacIntel,59.99880002,,
,,,,,,,,,,,,,,,,,-0.540033315,0.108513455,1,0,0,image_0,0,61,61,28,1,17,Her right arm is pulled back in a fist past her hair.,H,0,0,MSR-VTT-videoTestVideo_video7170-shot3_0,Images/MSR-VTT-videoTestVideo_video7170-shot3_0/img0.jpg,Images/MSR-VTT-videoTestVideo_video7170-shot3_0/img6.jpg,Images/MSR-VTT-videoTestVideo_video7170-shot3_0/img12.jpg,Images/MSR-VTT-videoTestVideo_video7170-shot3_0/img15.jpg,Images/MSR-VTT-videoTestVideo_video7170-shot3_0/img20.jpg,Images/MSR-VTT-videoTestVideo_video7170-shot3_0/img27.jpg,Images/MSR-VTT-videoTestVideo_video7170-shot3_0/img43.jpg,Images/MSR-VTT-videoTestVideo_video7170-shot3_0/img52.jpg,Images/MSR-VTT-videoTestVideo_video7170-shot3_0/img56.jpg,Images/MSR-VTT-videoTestVideo_video7170-shot3_0/img64.jpg,1561,19,0,2022-06-15_17h53.58.383,annotation,2021.2.3,MacIntel,59.99880002,,
,,,,,,,,,,,,,,,,,-0.320330743,0.097047594,1,0,0,image_1,0,62,62,12,1,2027,A person holding a fork in front of a frying pan.,M,1,2,MSR-VTT-videoTestVideo_video7507-shot0_0,Images/MSR-VTT-videoTestVideo_video7507-shot0_0/img0.jpg,Images/MSR-VTT-videoTestVideo_video7507-shot0_0/img13.jpg,Images/MSR-VTT-videoTestVideo_video7507-shot0_0/img27.jpg,Images/MSR-VTT-videoTestVideo_video7507-shot0_0/img30.jpg,Images/MSR-VTT-videoTestVideo_video7507-shot0_0/img34.jpg,Images/MSR-VTT-videoTestVideo_video7507-shot0_0/img42.jpg,Images/MSR-VTT-videoTestVideo_video7507-shot0_0/img57.jpg,Images/MSR-VTT-videoTestVideo_video7507-shot0_0/img64.jpg,Images/MSR-VTT-videoTestVideo_video7507-shot0_0/img111.jpg,Images/MSR-VTT-videoTestVideo_video7507-shot0_0/img132.jpg,1349,19,0,2022-06-15_17h53.58.383,annotation,2021.2.3,MacIntel,59.99880002,,
,,,,,,,,,,,,,,,,,,,,,,,,,,,,,,,,,,,,,,,,,,,,,,,2022-06-15_17h53.58.383,annotation,2021.2.3,MacIntel,59.99880002,space,56.6275
