mturk,key_resp_2.keys,key_resp_2.rt,key_resp_3.keys,key_resp_3.rt,mouse_2.x,mouse_2.y,mouse_2.leftButton,mouse_2.midButton,mouse_2.rightButton,mouse_2.clicked_name,key_resp_5.keys,key_resp_5.rt,key_resp.keys,key_resp.rt,key_resp_6.keys,key_resp_6.rt,mouse.x,mouse.y,mouse.leftButton,mouse.midButton,mouse.rightButton,mouse.clicked_name,trials.thisRepN,trials.thisTrialN,trials.thisN,trials.thisIndex,trials.ran,N,caption,class_caption,model_guessed,target_idx,image_set,img1,img2,img3,img4,img5,img6,img7,img8,img9,img10,Q_id,block,is_check,date,expName,psychopyVersion,OS,frameRate,key_resp_7.keys,key_resp_7.rt
1630474,space,3.7173,space,3.1889,0.260185185,0.092592593,1,0,0,ex4,space,3.3473,space,5.6274,space,0.9245,0.475925926,0.156481481,1,0,0,image_4,0,0,0,57,1,124,The older woman behind the man in the center is almost completely obscured with only a tiny portion of her skirt visible. ,H,1,4,MSR-VTT-videoTestVideo_video7999-shot1_0,Images/MSR-VTT-videoTestVideo_video7999-shot1_0/img0.jpg,Images/MSR-VTT-videoTestVideo_video7999-shot1_0/img5.jpg,Images/MSR-VTT-videoTestVideo_video7999-shot1_0/img8.jpg,Images/MSR-VTT-videoTestVideo_video7999-shot1_0/img14.jpg,Images/MSR-VTT-videoTestVideo_video7999-shot1_0/img21.jpg,Images/MSR-VTT-videoTestVideo_video7999-shot1_0/img25.jpg,Images/MSR-VTT-videoTestVideo_video7999-shot1_0/img30.jpg,Images/MSR-VTT-videoTestVideo_video7999-shot1_0/img33.jpg,Images/MSR-VTT-videoTestVideo_video7999-shot1_0/img36.jpg,Images/MSR-VTT-videoTestVideo_video7999-shot1_0/img43.jpg,1625,21,0,2022-06-15_16h09.27.543,annotation,2021.2.3,Win32,75.00750075,,
,,,,,,,,,,,,,,,,,0.022222222,0.175,1,0,0,image_2,0,1,1,61,1,3,A grey elephant with golden leaves on it. ,H,,2,open-images-1745_0ed62fe71809b2f5,Checks/check4/open-images-2609_3f72daeb23764ecfimg6.jpg,Checks/check4/open-images-1928_60679e2899870e08img1.jpg,Checks/check4/open-images-1745_0ed62fe71809b2f5img2.jpg,Checks/check4/open-images-1811_9ae6351c7f7565edimg0.jpg,Checks/check4/open-images-1721_6f04da11945ea492img3.jpg,Checks/check4/open-images-1907_5f9be3e4ea5e22c7img2.jpg,Checks/check4/open-images-580_0ddffb9c25141999img1.jpg,Checks/check4/open-images-2924_0645dcbcf998fed9img3.jpg,Checks/check4/open-images-869_856ecbcb5faf76e3img8.jpg,Checks/check4/open-images-250_02039517e63a91fbimg1.jpg,,,1,2022-06-15_16h09.27.543,annotation,2021.2.3,Win32,75.00750075,,
,,,,,,,,,,,,,,,,,-0.496296296,0.137962963,1,0,0,image_0,0,2,2,41,1,1861,A brown horse standing next to a fence.,M,0,1,MSR-VTT-videoTestVideo_video9416-shot1_6,Images/MSR-VTT-videoTestVideo_video9416-shot1_6/img228.jpg,Images/MSR-VTT-videoTestVideo_video9416-shot1_6/img229.jpg,Images/MSR-VTT-videoTestVideo_video9416-shot1_6/img232.jpg,Images/MSR-VTT-videoTestVideo_video9416-shot1_6/img238.jpg,Images/MSR-VTT-videoTestVideo_video9416-shot1_6/img239.jpg,Images/MSR-VTT-videoTestVideo_video9416-shot1_6/img240.jpg,Images/MSR-VTT-videoTestVideo_video9416-shot1_6/img244.jpg,Images/MSR-VTT-videoTestVideo_video9416-shot1_6/img246.jpg,Images/MSR-VTT-videoTestVideo_video9416-shot1_6/img249.jpg,Images/MSR-VTT-videoTestVideo_video9416-shot1_6/img251.jpg,1898,21,0,2022-06-15_16h09.27.543,annotation,2021.2.3,Win32,75.00750075,,
,,,,,,,,,,,,,,,,,0.460185185,0.134259259,1,0,0,image_4,0,3,3,44,1,1150,A girl sitting on a bench with a cell phone in her hand.,M,1,1,video-storytelling-videocamping_1OzbiB1TIWI-shot11_11,Images/video-storytelling-videocamping_1OzbiB1TIWI-shot11_11/img478.jpg,Images/video-storytelling-videocamping_1OzbiB1TIWI-shot11_11/img479.jpg,Images/video-storytelling-videocamping_1OzbiB1TIWI-shot11_11/img480.jpg,Images/video-storytelling-videocamping_1OzbiB1TIWI-shot11_11/img482.jpg,Images/video-storytelling-videocamping_1OzbiB1TIWI-shot11_11/img486.jpg,Images/video-storytelling-videocamping_1OzbiB1TIWI-shot11_11/img506.jpg,Images/video-storytelling-videocamping_1OzbiB1TIWI-shot11_11/img509.jpg,Images/video-storytelling-videocamping_1OzbiB1TIWI-shot11_11/img510.jpg,Images/video-storytelling-videocamping_1OzbiB1TIWI-shot11_11/img513.jpg,Images/video-storytelling-videocamping_1OzbiB1TIWI-shot11_11/img519.jpg,520,21,0,2022-06-15_16h09.27.543,annotation,2021.2.3,Win32,75.00750075,,
,,,,,,,,,,,,,,,,,0.275925926,0.134259259,1,0,0,image_3,0,4,4,30,1,1904,A row of books on a shelf next to each other.,M,1,7,MSR-VTT-videoTestVideo_video7075-shot1_3,Images/MSR-VTT-videoTestVideo_video7075-shot1_3/img135.jpg,Images/MSR-VTT-videoTestVideo_video7075-shot1_3/img140.jpg,Images/MSR-VTT-videoTestVideo_video7075-shot1_3/img141.jpg,Images/MSR-VTT-videoTestVideo_video7075-shot1_3/img143.jpg,Images/MSR-VTT-videoTestVideo_video7075-shot1_3/img144.jpg,Images/MSR-VTT-videoTestVideo_video7075-shot1_3/img153.jpg,Images/MSR-VTT-videoTestVideo_video7075-shot1_3/img172.jpg,Images/MSR-VTT-videoTestVideo_video7075-shot1_3/img175.jpg,Images/MSR-VTT-videoTestVideo_video7075-shot1_3/img191.jpg,Images/MSR-VTT-videoTestVideo_video7075-shot1_3/img213.jpg,1392,21,0,2022-06-15_16h09.27.543,annotation,2021.2.3,Win32,75.00750075,,
,,,,,,,,,,,,,,,,,0.249074074,0.093518519,1,0,0,image_3,0,5,5,52,1,740,The blue dog's left hand is completely off the edge of the image so you can't see any of the light brown on it at all.  The right hand is still completely visible. ,H,0,3,video-storytelling-videobirthday__amwPjAcoC8-shot61_19,Images/video-storytelling-videobirthday__amwPjAcoC8-shot61_19/img421.jpg,Images/video-storytelling-videobirthday__amwPjAcoC8-shot61_19/img422.jpg,Images/video-storytelling-videobirthday__amwPjAcoC8-shot61_19/img423.jpg,Images/video-storytelling-videobirthday__amwPjAcoC8-shot61_19/img424.jpg,Images/video-storytelling-videobirthday__amwPjAcoC8-shot61_19/img426.jpg,Images/video-storytelling-videobirthday__amwPjAcoC8-shot61_19/img427.jpg,Images/video-storytelling-videobirthday__amwPjAcoC8-shot61_19/img429.jpg,Images/video-storytelling-videobirthday__amwPjAcoC8-shot61_19/img431.jpg,Images/video-storytelling-videobirthday__amwPjAcoC8-shot61_19/img433.jpg,Images/video-storytelling-videobirthday__amwPjAcoC8-shot61_19/img434.jpg,927,21,0,2022-06-15_16h09.27.543,annotation,2021.2.3,Win32,75.00750075,,
,,,,,,,,,,,,,,,,,0.249074074,-0.157407407,1,0,0,image_8,0,6,6,25,1,422,The women have their heads very close together.  The younger woman is looking over to the left. ,H,0,8,MSR-VTT-videoTestVideo_video9682-shot0_3,Images/MSR-VTT-videoTestVideo_video9682-shot0_3/img230.jpg,Images/MSR-VTT-videoTestVideo_video9682-shot0_3/img232.jpg,Images/MSR-VTT-videoTestVideo_video9682-shot0_3/img234.jpg,Images/MSR-VTT-videoTestVideo_video9682-shot0_3/img238.jpg,Images/MSR-VTT-videoTestVideo_video9682-shot0_3/img243.jpg,Images/MSR-VTT-videoTestVideo_video9682-shot0_3/img250.jpg,Images/MSR-VTT-videoTestVideo_video9682-shot0_3/img253.jpg,Images/MSR-VTT-videoTestVideo_video9682-shot0_3/img260.jpg,Images/MSR-VTT-videoTestVideo_video9682-shot0_3/img267.jpg,Images/MSR-VTT-videoTestVideo_video9682-shot0_3/img272.jpg,660,21,0,2022-06-15_16h09.27.543,annotation,2021.2.3,Win32,75.00750075,,
,,,,,,,,,,,,,,,,,0.005555556,-0.159259259,1,0,0,image_7,0,7,7,24,1,545,The person with the white shirt  over her butt is really bent over far with her hands at her back. ,H,0,7,video-storytelling-videocamping_1OzbiB1TIWI-shot14_2,Images/video-storytelling-videocamping_1OzbiB1TIWI-shot14_2/img519.jpg,Images/video-storytelling-videocamping_1OzbiB1TIWI-shot14_2/img525.jpg,Images/video-storytelling-videocamping_1OzbiB1TIWI-shot14_2/img531.jpg,Images/video-storytelling-videocamping_1OzbiB1TIWI-shot14_2/img537.jpg,Images/video-storytelling-videocamping_1OzbiB1TIWI-shot14_2/img560.jpg,Images/video-storytelling-videocamping_1OzbiB1TIWI-shot14_2/img567.jpg,Images/video-storytelling-videocamping_1OzbiB1TIWI-shot14_2/img584.jpg,Images/video-storytelling-videocamping_1OzbiB1TIWI-shot14_2/img642.jpg,Images/video-storytelling-videocamping_1OzbiB1TIWI-shot14_2/img668.jpg,Images/video-storytelling-videocamping_1OzbiB1TIWI-shot14_2/img698.jpg,830,21,0,2022-06-15_16h09.27.543,annotation,2021.2.3,Win32,75.00750075,,
,,,,,,,,,,,,,,,,,-0.05462963,0.148148148,1,0,0,image_2,0,8,8,51,1,326,There is a person with a blue backpack on the far left.  The edge of the backpack is still just barely visible. ,H,1,2,video-storytelling-videobirthday__amwPjAcoC8-shot63_2,Images/video-storytelling-videobirthday__amwPjAcoC8-shot63_2/img58.jpg,Images/video-storytelling-videobirthday__amwPjAcoC8-shot63_2/img60.jpg,Images/video-storytelling-videobirthday__amwPjAcoC8-shot63_2/img62.jpg,Images/video-storytelling-videobirthday__amwPjAcoC8-shot63_2/img64.jpg,Images/video-storytelling-videobirthday__amwPjAcoC8-shot63_2/img72.jpg,Images/video-storytelling-videobirthday__amwPjAcoC8-shot63_2/img76.jpg,Images/video-storytelling-videobirthday__amwPjAcoC8-shot63_2/img80.jpg,Images/video-storytelling-videobirthday__amwPjAcoC8-shot63_2/img83.jpg,Images/video-storytelling-videobirthday__amwPjAcoC8-shot63_2/img87.jpg,Images/video-storytelling-videobirthday__amwPjAcoC8-shot63_2/img91.jpg,132,21,0,2022-06-15_16h09.27.543,annotation,2021.2.3,Win32,75.00750075,,
,,,,,,,,,,,,,,,,,-0.47037037,-0.180555556,1,0,0,image_5,0,9,9,50,1,938,The dog is no longer blocking any of the person's feet but the dog is still pretty close. The image is pretty clear with no blur,H,0,6,video-storytelling-videocamping_dBXYM3dQTSo-shot26_1,Images/video-storytelling-videocamping_dBXYM3dQTSo-shot26_1/img31.jpg,Images/video-storytelling-videocamping_dBXYM3dQTSo-shot26_1/img40.jpg,Images/video-storytelling-videocamping_dBXYM3dQTSo-shot26_1/img42.jpg,Images/video-storytelling-videocamping_dBXYM3dQTSo-shot26_1/img53.jpg,Images/video-storytelling-videocamping_dBXYM3dQTSo-shot26_1/img64.jpg,Images/video-storytelling-videocamping_dBXYM3dQTSo-shot26_1/img69.jpg,Images/video-storytelling-videocamping_dBXYM3dQTSo-shot26_1/img79.jpg,Images/video-storytelling-videocamping_dBXYM3dQTSo-shot26_1/img83.jpg,Images/video-storytelling-videocamping_dBXYM3dQTSo-shot26_1/img87.jpg,Images/video-storytelling-videocamping_dBXYM3dQTSo-shot26_1/img89.jpg,112,21,0,2022-06-15_16h09.27.543,annotation,2021.2.3,Win32,75.00750075,,
,,,,,,,,,,,,,,,,,0.178703704,-0.130555556,1,0,0,image_8,0,10,10,19,1,2031,A young girl holding a cell phone in her hands.,M,0,3,MSR-VTT-videoTestVideo_video9189-shot3_0,Images/MSR-VTT-videoTestVideo_video9189-shot3_0/img0.jpg,Images/MSR-VTT-videoTestVideo_video9189-shot3_0/img3.jpg,Images/MSR-VTT-videoTestVideo_video9189-shot3_0/img11.jpg,Images/MSR-VTT-videoTestVideo_video9189-shot3_0/img15.jpg,Images/MSR-VTT-videoTestVideo_video9189-shot3_0/img22.jpg,Images/MSR-VTT-videoTestVideo_video9189-shot3_0/img24.jpg,Images/MSR-VTT-videoTestVideo_video9189-shot3_0/img32.jpg,Images/MSR-VTT-videoTestVideo_video9189-shot3_0/img35.jpg,Images/MSR-VTT-videoTestVideo_video9189-shot3_0/img39.jpg,Images/MSR-VTT-videoTestVideo_video9189-shot3_0/img45.jpg,1085,21,0,2022-06-15_16h09.27.543,annotation,2021.2.3,Win32,75.00750075,,
,,,,,,,,,,,,,,,,,0.525,0.175925926,1,0,0,image_4,0,11,11,22,1,1811,A basketball player jumping into the air to catch a ball.,M,0,6,MSR-VTT-videoTestVideo_video8013-shot1_0,Images/MSR-VTT-videoTestVideo_video8013-shot1_0/img0.jpg,Images/MSR-VTT-videoTestVideo_video8013-shot1_0/img1.jpg,Images/MSR-VTT-videoTestVideo_video8013-shot1_0/img10.jpg,Images/MSR-VTT-videoTestVideo_video8013-shot1_0/img12.jpg,Images/MSR-VTT-videoTestVideo_video8013-shot1_0/img18.jpg,Images/MSR-VTT-videoTestVideo_video8013-shot1_0/img20.jpg,Images/MSR-VTT-videoTestVideo_video8013-shot1_0/img24.jpg,Images/MSR-VTT-videoTestVideo_video8013-shot1_0/img25.jpg,Images/MSR-VTT-videoTestVideo_video8013-shot1_0/img30.jpg,Images/MSR-VTT-videoTestVideo_video8013-shot1_0/img31.jpg,705,21,0,2022-06-15_16h09.27.543,annotation,2021.2.3,Win32,75.00750075,,
,,,,,,,,,,,,,,,,,0,0.15462963,1,0,0,image_2,0,12,12,58,1,0,Pair of black gloves,H,,2,open-images-510_3a241cb30d6e5319,Checks/check1/open-images-225_1442c0d0ef23d58bimg3.jpg,Checks/check1/open-images-2759_3a42708fe77398b7img8.jpg,Checks/check1/open-images-510_3a241cb30d6e5319img2.jpg,Checks/check1/open-images-2209_02c98146fb93ff17img1.jpg,Checks/check1/open-images-1553_0f128317e56a9d2fimg9.jpg,Checks/check1/open-images-2666_044d7c6d11e6b493img8.jpg,Checks/check1/open-images-2880_159294646083f545img4.jpg,Checks/check1/open-images-609_2dc0baa993a2bd25img5.jpg,Checks/check1/open-images-1854_2b15616b4f1080e7img2.jpg,Checks/check1/open-images-1435_1b0ce31951048765img8.jpg,,,1,2022-06-15_16h09.27.543,annotation,2021.2.3,Win32,75.00750075,,
,,,,,,,,,,,,,,,,,-0.258333333,0.159259259,1,0,0,image_1,0,13,13,43,1,216,Black and white picture. All but one of the numbers in the time stamp are the same number.,H,0,1,MSR-VTT-videoTestVideo_video7836-shot1_2,Images/MSR-VTT-videoTestVideo_video7836-shot1_2/img116.jpg,Images/MSR-VTT-videoTestVideo_video7836-shot1_2/img121.jpg,Images/MSR-VTT-videoTestVideo_video7836-shot1_2/img138.jpg,Images/MSR-VTT-videoTestVideo_video7836-shot1_2/img161.jpg,Images/MSR-VTT-videoTestVideo_video7836-shot1_2/img166.jpg,Images/MSR-VTT-videoTestVideo_video7836-shot1_2/img172.jpg,Images/MSR-VTT-videoTestVideo_video7836-shot1_2/img182.jpg,Images/MSR-VTT-videoTestVideo_video7836-shot1_2/img187.jpg,Images/MSR-VTT-videoTestVideo_video7836-shot1_2/img219.jpg,Images/MSR-VTT-videoTestVideo_video7836-shot1_2/img269.jpg,422,21,0,2022-06-15_16h09.27.543,annotation,2021.2.3,Win32,75.00750075,,
,,,,,,,,,,,,,,,,,0.543518519,-0.186111111,1,0,0,image_9,0,14,14,16,1,1370,A person in a swimming pool with a goat in the water.,M,0,2,video-storytelling-videobirthday__amwPjAcoC8-shot63_2,Images/video-storytelling-videobirthday__amwPjAcoC8-shot63_2/img58.jpg,Images/video-storytelling-videobirthday__amwPjAcoC8-shot63_2/img60.jpg,Images/video-storytelling-videobirthday__amwPjAcoC8-shot63_2/img62.jpg,Images/video-storytelling-videobirthday__amwPjAcoC8-shot63_2/img64.jpg,Images/video-storytelling-videobirthday__amwPjAcoC8-shot63_2/img72.jpg,Images/video-storytelling-videobirthday__amwPjAcoC8-shot63_2/img76.jpg,Images/video-storytelling-videobirthday__amwPjAcoC8-shot63_2/img80.jpg,Images/video-storytelling-videobirthday__amwPjAcoC8-shot63_2/img83.jpg,Images/video-storytelling-videobirthday__amwPjAcoC8-shot63_2/img87.jpg,Images/video-storytelling-videobirthday__amwPjAcoC8-shot63_2/img91.jpg,614,21,0,2022-06-15_16h09.27.543,annotation,2021.2.3,Win32,75.00750075,,
,,,,,,,,,,,,,,,,,0.269444444,-0.164814815,1,0,0,image_8,0,15,15,39,1,1081,A horse standing next to a person in a barn.,M,0,7,MSR-VTT-videoTestVideo_video9858-shot1_1,Images/MSR-VTT-videoTestVideo_video9858-shot1_1/img204.jpg,Images/MSR-VTT-videoTestVideo_video9858-shot1_1/img216.jpg,Images/MSR-VTT-videoTestVideo_video9858-shot1_1/img239.jpg,Images/MSR-VTT-videoTestVideo_video9858-shot1_1/img248.jpg,Images/MSR-VTT-videoTestVideo_video9858-shot1_1/img256.jpg,Images/MSR-VTT-videoTestVideo_video9858-shot1_1/img267.jpg,Images/MSR-VTT-videoTestVideo_video9858-shot1_1/img313.jpg,Images/MSR-VTT-videoTestVideo_video9858-shot1_1/img341.jpg,Images/MSR-VTT-videoTestVideo_video9858-shot1_1/img348.jpg,Images/MSR-VTT-videoTestVideo_video9858-shot1_1/img351.jpg,70,21,0,2022-06-15_16h09.27.543,annotation,2021.2.3,Win32,75.00750075,,
,,,,,,,,,,,,,,,,,0.524074074,0.201851852,1,0,0,image_4,0,16,16,20,1,982,Her mouth is partially blocked by her hand.  You can see part of her open mouth and can see her top teeth. ,H,0,4,MSR-VTT-videoTestVideo_video7429-shot0_0,Images/MSR-VTT-videoTestVideo_video7429-shot0_0/img2.jpg,Images/MSR-VTT-videoTestVideo_video7429-shot0_0/img14.jpg,Images/MSR-VTT-videoTestVideo_video7429-shot0_0/img22.jpg,Images/MSR-VTT-videoTestVideo_video7429-shot0_0/img27.jpg,Images/MSR-VTT-videoTestVideo_video7429-shot0_0/img40.jpg,Images/MSR-VTT-videoTestVideo_video7429-shot0_0/img47.jpg,Images/MSR-VTT-videoTestVideo_video7429-shot0_0/img51.jpg,Images/MSR-VTT-videoTestVideo_video7429-shot0_0/img77.jpg,Images/MSR-VTT-videoTestVideo_video7429-shot0_0/img81.jpg,Images/MSR-VTT-videoTestVideo_video7429-shot0_0/img84.jpg,302,21,0,2022-06-15_16h09.27.543,annotation,2021.2.3,Win32,75.00750075,,
,,,,,,,,,,,,,,,,,0.547222222,-0.147222222,1,0,0,image_9,0,17,17,60,1,2,Green type writer with a red tape. ,H,,9,open-images-531_0dd4eb59d465a8be,Checks/check3/open-images-503_1ccd6fa641154ebbimg7.jpg,Checks/check3/open-images-1852_00faf52058ad28b8img4.jpg,Checks/check3/open-images-386_1b2e28d6d994603eimg1.jpg,Checks/check3/open-images-471_1121e9f97c200ac0img8.jpg,Checks/check3/open-images-1886_3db71eaddb618934img8.jpg,Checks/check3/open-images-1696_20a4ebf0c0f76b05img6.jpg,Checks/check3/open-images-2447_128483a48e1552f4img6.jpg,Checks/check3/open-images-2994_9965cbf8aa20bda0img2.jpg,Checks/check3/open-images-1068_03d63613107970b3img6.jpg,Checks/check3/open-images-531_0dd4eb59d465a8beimg9.jpg,,,1,2022-06-15_16h09.27.543,annotation,2021.2.3,Win32,75.00750075,,
,,,,,,,,,,,,,,,,,-0.535185185,-0.108333333,1,0,0,image_5,0,18,18,59,1,1,The only picture of a hawk.  It is looking to the left.  You see lots of branches and darker blue sky. ,H,,5,open-images-958_686caac9c5b322e7,Checks/check2/open-images-2603_1b5152f01f0093e7img3.jpg,Checks/check2/open-images-1836_069810916ce5d675img8.jpg,Checks/check2/open-images-974_0748fdedc4bf8b7bimg2.jpg,Checks/check2/open-images-617_01fb725fb1aa7b04img6.jpg,Checks/check2/open-images-507_047769e1f977cd97img2.jpg,Checks/check2/open-images-958_686caac9c5b322e7img5.jpg,Checks/check2/open-images-1278_21851d9bf5dc05c9img7.jpg,Checks/check2/open-images-2424_05f04546e01499f2img0.jpg,Checks/check2/open-images-1529_1442b11a10a6aeadimg3.jpg,Checks/check2/open-images-514_2c523ddedc2561d4img1.jpg,,,1,2022-06-15_16h09.27.543,annotation,2021.2.3,Win32,75.00750075,,
,,,,,,,,,,,,,,,,,0.247222222,-0.185185185,1,0,0,image_8,0,19,19,38,1,1326,A man riding a motorbike through a building.,M,0,6,MSR-VTT-videoTestVideo_video8356-shot1_8,Images/MSR-VTT-videoTestVideo_video8356-shot1_8/img602.jpg,Images/MSR-VTT-videoTestVideo_video8356-shot1_8/img624.jpg,Images/MSR-VTT-videoTestVideo_video8356-shot1_8/img627.jpg,Images/MSR-VTT-videoTestVideo_video8356-shot1_8/img657.jpg,Images/MSR-VTT-videoTestVideo_video8356-shot1_8/img675.jpg,Images/MSR-VTT-videoTestVideo_video8356-shot1_8/img700.jpg,Images/MSR-VTT-videoTestVideo_video8356-shot1_8/img715.jpg,Images/MSR-VTT-videoTestVideo_video8356-shot1_8/img751.jpg,Images/MSR-VTT-videoTestVideo_video8356-shot1_8/img764.jpg,Images/MSR-VTT-videoTestVideo_video8356-shot1_8/img799.jpg,1908,21,0,2022-06-15_16h09.27.543,annotation,2021.2.3,Win32,75.00750075,,
,,,,,,,,,,,,,,,,,0.02962963,-0.160185185,1,0,0,image_7,0,20,20,5,1,1411,A woman holding a placard in front of a podium.,M,0,3,MSR-VTT-videoTestVideo_video7168-shot1_1,Images/MSR-VTT-videoTestVideo_video7168-shot1_1/img148.jpg,Images/MSR-VTT-videoTestVideo_video7168-shot1_1/img161.jpg,Images/MSR-VTT-videoTestVideo_video7168-shot1_1/img169.jpg,Images/MSR-VTT-videoTestVideo_video7168-shot1_1/img174.jpg,Images/MSR-VTT-videoTestVideo_video7168-shot1_1/img180.jpg,Images/MSR-VTT-videoTestVideo_video7168-shot1_1/img185.jpg,Images/MSR-VTT-videoTestVideo_video7168-shot1_1/img188.jpg,Images/MSR-VTT-videoTestVideo_video7168-shot1_1/img192.jpg,Images/MSR-VTT-videoTestVideo_video7168-shot1_1/img193.jpg,Images/MSR-VTT-videoTestVideo_video7168-shot1_1/img195.jpg,1217,21,0,2022-06-15_16h09.27.543,annotation,2021.2.3,Win32,75.00750075,,
,,,,,,,,,,,,,,,,,-0.506481481,0.151851852,1,0,0,image_0,0,21,21,1,1,352,The pink item on the counter is fully visible.,H,1,0,video-storytelling-videochristmas_5RR_sRzKODA-shot39_0,Images/video-storytelling-videochristmas_5RR_sRzKODA-shot39_0/img0.jpg,Images/video-storytelling-videochristmas_5RR_sRzKODA-shot39_0/img10.jpg,Images/video-storytelling-videochristmas_5RR_sRzKODA-shot39_0/img17.jpg,Images/video-storytelling-videochristmas_5RR_sRzKODA-shot39_0/img23.jpg,Images/video-storytelling-videochristmas_5RR_sRzKODA-shot39_0/img29.jpg,Images/video-storytelling-videochristmas_5RR_sRzKODA-shot39_0/img35.jpg,Images/video-storytelling-videochristmas_5RR_sRzKODA-shot39_0/img40.jpg,Images/video-storytelling-videochristmas_5RR_sRzKODA-shot39_0/img46.jpg,Images/video-storytelling-videochristmas_5RR_sRzKODA-shot39_0/img48.jpg,Images/video-storytelling-videochristmas_5RR_sRzKODA-shot39_0/img53.jpg,170,21,0,2022-06-15_16h09.27.543,annotation,2021.2.3,Win32,75.00750075,,
,,,,,,,,,,,,,,,,,-0.525,0.127777778,1,0,0,image_0,0,22,22,45,1,1596,A couple of people standing in front of a bedroom.,M,0,1,video-storytelling-videobirthday_fwpYnUDbusw-shot66_0,Images/video-storytelling-videobirthday_fwpYnUDbusw-shot66_0/img6.jpg,Images/video-storytelling-videobirthday_fwpYnUDbusw-shot66_0/img11.jpg,Images/video-storytelling-videobirthday_fwpYnUDbusw-shot66_0/img21.jpg,Images/video-storytelling-videobirthday_fwpYnUDbusw-shot66_0/img23.jpg,Images/video-storytelling-videobirthday_fwpYnUDbusw-shot66_0/img27.jpg,Images/video-storytelling-videobirthday_fwpYnUDbusw-shot66_0/img34.jpg,Images/video-storytelling-videobirthday_fwpYnUDbusw-shot66_0/img37.jpg,Images/video-storytelling-videobirthday_fwpYnUDbusw-shot66_0/img44.jpg,Images/video-storytelling-videobirthday_fwpYnUDbusw-shot66_0/img50.jpg,Images/video-storytelling-videobirthday_fwpYnUDbusw-shot66_0/img58.jpg,1992,21,0,2022-06-15_16h09.27.543,annotation,2021.2.3,Win32,75.00750075,,
,,,,,,,,,,,,,,,,,-0.510185185,-0.167592593,1,0,0,image_5,0,23,23,21,1,1546,A picture of a train that is on a train track.,M,0,6,MSR-VTT-videoTestVideo_video8896-shot1_2,Images/MSR-VTT-videoTestVideo_video8896-shot1_2/img368.jpg,Images/MSR-VTT-videoTestVideo_video8896-shot1_2/img401.jpg,Images/MSR-VTT-videoTestVideo_video8896-shot1_2/img449.jpg,Images/MSR-VTT-videoTestVideo_video8896-shot1_2/img492.jpg,Images/MSR-VTT-videoTestVideo_video8896-shot1_2/img504.jpg,Images/MSR-VTT-videoTestVideo_video8896-shot1_2/img559.jpg,Images/MSR-VTT-videoTestVideo_video8896-shot1_2/img576.jpg,Images/MSR-VTT-videoTestVideo_video8896-shot1_2/img588.jpg,Images/MSR-VTT-videoTestVideo_video8896-shot1_2/img628.jpg,Images/MSR-VTT-videoTestVideo_video8896-shot1_2/img642.jpg,1238,21,0,2022-06-15_16h09.27.543,annotation,2021.2.3,Win32,75.00750075,,
,,,,,,,,,,,,,,,,,-0.277777778,0.159259259,1,0,0,image_1,0,24,24,62,1,4,A penguin holding a piece of paper with text on it. ,H,,1,open-images-2521_074d6af730ed17a6,Checks/check5/open-images-509_4d8bd994cb8c6eaeimg0.jpg,Checks/check5/open-images-2521_074d6af730ed17a6img1.jpg,Checks/check5/open-images-1365_a00a5fde334ae45aimg4.jpg,Checks/check5/open-images-1602_44092afdeab39e73img6.jpg,Checks/check5/open-images-1032_059f3cdfb85ee0ceimg3.jpg,Checks/check5/open-images-727_25b77fff36adba66img2.jpg,Checks/check5/open-images-2208_0fb92b9978d98575img2.jpg,Checks/check5/open-images-1305_05769e6abb16fdc8img9.jpg,Checks/check5/open-images-2676_052dbf7b4899430bimg1.jpg,Checks/check5/open-images-2569_1e81d79bb796a2dbimg7.jpg,,,1,2022-06-15_16h09.27.543,annotation,2021.2.3,Win32,75.00750075,,
,,,,,,,,,,,,,,,,,0.574074074,0.131481481,1,0,0,image_4,0,25,25,46,1,1230,A group of people that are standing in the water.,M,0,3,MSR-VTT-videoTestVideo_video8831-shot4_0,Images/MSR-VTT-videoTestVideo_video8831-shot4_0/img0.jpg,Images/MSR-VTT-videoTestVideo_video8831-shot4_0/img1.jpg,Images/MSR-VTT-videoTestVideo_video8831-shot4_0/img2.jpg,Images/MSR-VTT-videoTestVideo_video8831-shot4_0/img3.jpg,Images/MSR-VTT-videoTestVideo_video8831-shot4_0/img5.jpg,Images/MSR-VTT-videoTestVideo_video8831-shot4_0/img6.jpg,Images/MSR-VTT-videoTestVideo_video8831-shot4_0/img8.jpg,Images/MSR-VTT-videoTestVideo_video8831-shot4_0/img16.jpg,Images/MSR-VTT-videoTestVideo_video8831-shot4_0/img19.jpg,Images/MSR-VTT-videoTestVideo_video8831-shot4_0/img21.jpg,233,21,0,2022-06-15_16h09.27.543,annotation,2021.2.3,Win32,75.00750075,,
,,,,,,,,,,,,,,,,,-0.476851852,0.172222222,1,0,0,image_0,0,26,26,3,1,1564,A man standing in front of a blue wall.,M,0,4,MSR-VTT-videoTestVideo_video9319-shot1_2,Images/MSR-VTT-videoTestVideo_video9319-shot1_2/img163.jpg,Images/MSR-VTT-videoTestVideo_video9319-shot1_2/img170.jpg,Images/MSR-VTT-videoTestVideo_video9319-shot1_2/img186.jpg,Images/MSR-VTT-videoTestVideo_video9319-shot1_2/img201.jpg,Images/MSR-VTT-videoTestVideo_video9319-shot1_2/img211.jpg,Images/MSR-VTT-videoTestVideo_video9319-shot1_2/img220.jpg,Images/MSR-VTT-videoTestVideo_video9319-shot1_2/img229.jpg,Images/MSR-VTT-videoTestVideo_video9319-shot1_2/img236.jpg,Images/MSR-VTT-videoTestVideo_video9319-shot1_2/img272.jpg,Images/MSR-VTT-videoTestVideo_video9319-shot1_2/img276.jpg,1786,21,0,2022-06-15_16h09.27.543,annotation,2021.2.3,Win32,75.00750075,,
,,,,,,,,,,,,,,,,,-0.265740741,0.151851852,1,0,0,image_1,0,27,27,48,1,1817,A woman standing in front of a mirror with a cell phone in her hand.,M,0,5,MSR-VTT-videoTestVideo_video8904-shot1_1,Images/MSR-VTT-videoTestVideo_video8904-shot1_1/img67.jpg,Images/MSR-VTT-videoTestVideo_video8904-shot1_1/img86.jpg,Images/MSR-VTT-videoTestVideo_video8904-shot1_1/img92.jpg,Images/MSR-VTT-videoTestVideo_video8904-shot1_1/img120.jpg,Images/MSR-VTT-videoTestVideo_video8904-shot1_1/img123.jpg,Images/MSR-VTT-videoTestVideo_video8904-shot1_1/img128.jpg,Images/MSR-VTT-videoTestVideo_video8904-shot1_1/img147.jpg,Images/MSR-VTT-videoTestVideo_video8904-shot1_1/img157.jpg,Images/MSR-VTT-videoTestVideo_video8904-shot1_1/img161.jpg,Images/MSR-VTT-videoTestVideo_video8904-shot1_1/img168.jpg,6,21,0,2022-06-15_16h09.27.543,annotation,2021.2.3,Win32,75.00750075,,
,,,,,,,,,,,,,,,,,-0.04537037,-0.125,1,0,0,image_7,0,28,28,14,1,126,The woman on the far left has her back to the camera so you can't see any of her face.  Her right hand is visible but very blurry.  ,H,0,7,video-storytelling-videocamping_1OzbiB1TIWI-shot43_14,Images/video-storytelling-videocamping_1OzbiB1TIWI-shot43_14/img737.jpg,Images/video-storytelling-videocamping_1OzbiB1TIWI-shot43_14/img738.jpg,Images/video-storytelling-videocamping_1OzbiB1TIWI-shot43_14/img743.jpg,Images/video-storytelling-videocamping_1OzbiB1TIWI-shot43_14/img745.jpg,Images/video-storytelling-videocamping_1OzbiB1TIWI-shot43_14/img746.jpg,Images/video-storytelling-videocamping_1OzbiB1TIWI-shot43_14/img748.jpg,Images/video-storytelling-videocamping_1OzbiB1TIWI-shot43_14/img751.jpg,Images/video-storytelling-videocamping_1OzbiB1TIWI-shot43_14/img753.jpg,Images/video-storytelling-videocamping_1OzbiB1TIWI-shot43_14/img756.jpg,Images/video-storytelling-videocamping_1OzbiB1TIWI-shot43_14/img758.jpg,1249,21,0,2022-06-15_16h09.27.543,annotation,2021.2.3,Win32,75.00750075,,
,,,,,,,,,,,,,,,,,0.255555556,0.140740741,1,0,0,image_3,0,29,29,11,1,1746,A man in a suit and tie talking on a cell phone.,M,1,3,MSR-VTT-videoTestVideo_video9623-shot1_1,Images/MSR-VTT-videoTestVideo_video9623-shot1_1/img39.jpg,Images/MSR-VTT-videoTestVideo_video9623-shot1_1/img41.jpg,Images/MSR-VTT-videoTestVideo_video9623-shot1_1/img43.jpg,Images/MSR-VTT-videoTestVideo_video9623-shot1_1/img45.jpg,Images/MSR-VTT-videoTestVideo_video9623-shot1_1/img120.jpg,Images/MSR-VTT-videoTestVideo_video9623-shot1_1/img138.jpg,Images/MSR-VTT-videoTestVideo_video9623-shot1_1/img141.jpg,Images/MSR-VTT-videoTestVideo_video9623-shot1_1/img144.jpg,Images/MSR-VTT-videoTestVideo_video9623-shot1_1/img146.jpg,Images/MSR-VTT-videoTestVideo_video9623-shot1_1/img148.jpg,1066,21,0,2022-06-15_16h09.27.543,annotation,2021.2.3,Win32,75.00750075,,
,,,,,,,,,,,,,,,,,-0.486111111,-0.143518519,1,0,0,image_5,0,30,30,37,1,1131,A man that is standing in front of a wall.,M,1,5,MSR-VTT-videoTestVideo_video8777-shot1_1,Images/MSR-VTT-videoTestVideo_video8777-shot1_1/img95.jpg,Images/MSR-VTT-videoTestVideo_video8777-shot1_1/img230.jpg,Images/MSR-VTT-videoTestVideo_video8777-shot1_1/img231.jpg,Images/MSR-VTT-videoTestVideo_video8777-shot1_1/img232.jpg,Images/MSR-VTT-videoTestVideo_video8777-shot1_1/img237.jpg,Images/MSR-VTT-videoTestVideo_video8777-shot1_1/img243.jpg,Images/MSR-VTT-videoTestVideo_video8777-shot1_1/img253.jpg,Images/MSR-VTT-videoTestVideo_video8777-shot1_1/img283.jpg,Images/MSR-VTT-videoTestVideo_video8777-shot1_1/img305.jpg,Images/MSR-VTT-videoTestVideo_video8777-shot1_1/img308.jpg,1807,21,0,2022-06-15_16h09.27.543,annotation,2021.2.3,Win32,75.00750075,,
,,,,,,,,,,,,,,,,,-0.275,0.173148148,1,0,0,image_1,0,31,31,28,1,871,"A woman is standing behind a counter this a very neat array of ingredients, looking down ",H,0,1,YouCook-video0098-shot1_0,Images/YouCook-video0098-shot1_0/img0.jpg,Images/YouCook-video0098-shot1_0/img24.jpg,Images/YouCook-video0098-shot1_0/img106.jpg,Images/YouCook-video0098-shot1_0/img132.jpg,Images/YouCook-video0098-shot1_0/img137.jpg,Images/YouCook-video0098-shot1_0/img139.jpg,Images/YouCook-video0098-shot1_0/img149.jpg,Images/YouCook-video0098-shot1_0/img170.jpg,Images/YouCook-video0098-shot1_0/img191.jpg,Images/YouCook-video0098-shot1_0/img201.jpg,1006,21,0,2022-06-15_16h09.27.543,annotation,2021.2.3,Win32,75.00750075,,
,,,,,,,,,,,,,,,,,0.533333333,-0.152777778,1,0,0,image_9,0,32,32,55,1,246,The woman face is fully visible with nothing covering the eyes,H,0,9,YouCook-video0013-shot13_0,Images/YouCook-video0013-shot13_0/img0.jpg,Images/YouCook-video0013-shot13_0/img8.jpg,Images/YouCook-video0013-shot13_0/img35.jpg,Images/YouCook-video0013-shot13_0/img48.jpg,Images/YouCook-video0013-shot13_0/img53.jpg,Images/YouCook-video0013-shot13_0/img56.jpg,Images/YouCook-video0013-shot13_0/img58.jpg,Images/YouCook-video0013-shot13_0/img59.jpg,Images/YouCook-video0013-shot13_0/img61.jpg,Images/YouCook-video0013-shot13_0/img64.jpg,158,21,0,2022-06-15_16h09.27.543,annotation,2021.2.3,Win32,75.00750075,,
,,,,,,,,,,,,,,,,,-0.234259259,0.124074074,1,0,0,image_1,0,33,33,12,1,689,The second man on the left front row is looking down at the model in white.,H,0,2,MSR-VTT-videoTestVideo_video9289-shot1_0,Images/MSR-VTT-videoTestVideo_video9289-shot1_0/img0.jpg,Images/MSR-VTT-videoTestVideo_video9289-shot1_0/img9.jpg,Images/MSR-VTT-videoTestVideo_video9289-shot1_0/img15.jpg,Images/MSR-VTT-videoTestVideo_video9289-shot1_0/img17.jpg,Images/MSR-VTT-videoTestVideo_video9289-shot1_0/img30.jpg,Images/MSR-VTT-videoTestVideo_video9289-shot1_0/img37.jpg,Images/MSR-VTT-videoTestVideo_video9289-shot1_0/img43.jpg,Images/MSR-VTT-videoTestVideo_video9289-shot1_0/img54.jpg,Images/MSR-VTT-videoTestVideo_video9289-shot1_0/img62.jpg,Images/MSR-VTT-videoTestVideo_video9289-shot1_0/img69.jpg,164,21,0,2022-06-15_16h09.27.543,annotation,2021.2.3,Win32,75.00750075,,
,,,,,,,,,,,,,,,,,-0.464814815,0.135185185,1,0,0,image_0,0,34,34,33,1,1739,A child riding a toy robot on a street corner.,M,0,7,MSR-VTT-videoTestVideo_video7464-shot1_1,Images/MSR-VTT-videoTestVideo_video7464-shot1_1/img245.jpg,Images/MSR-VTT-videoTestVideo_video7464-shot1_1/img248.jpg,Images/MSR-VTT-videoTestVideo_video7464-shot1_1/img250.jpg,Images/MSR-VTT-videoTestVideo_video7464-shot1_1/img254.jpg,Images/MSR-VTT-videoTestVideo_video7464-shot1_1/img257.jpg,Images/MSR-VTT-videoTestVideo_video7464-shot1_1/img269.jpg,Images/MSR-VTT-videoTestVideo_video7464-shot1_1/img274.jpg,Images/MSR-VTT-videoTestVideo_video7464-shot1_1/img288.jpg,Images/MSR-VTT-videoTestVideo_video7464-shot1_1/img304.jpg,Images/MSR-VTT-videoTestVideo_video7464-shot1_1/img307.jpg,1010,21,0,2022-06-15_16h09.27.543,annotation,2021.2.3,Win32,75.00750075,,
,,,,,,,,,,,,,,,,,0.508333333,0.149074074,1,0,0,image_4,0,35,35,10,1,1922,A boy is reading a book on a table.,M,1,5,video-storytelling-videobirthday__amwPjAcoC8-shot39_3,Images/video-storytelling-videobirthday__amwPjAcoC8-shot39_3/img89.jpg,Images/video-storytelling-videobirthday__amwPjAcoC8-shot39_3/img91.jpg,Images/video-storytelling-videobirthday__amwPjAcoC8-shot39_3/img93.jpg,Images/video-storytelling-videobirthday__amwPjAcoC8-shot39_3/img100.jpg,Images/video-storytelling-videobirthday__amwPjAcoC8-shot39_3/img102.jpg,Images/video-storytelling-videobirthday__amwPjAcoC8-shot39_3/img105.jpg,Images/video-storytelling-videobirthday__amwPjAcoC8-shot39_3/img108.jpg,Images/video-storytelling-videobirthday__amwPjAcoC8-shot39_3/img110.jpg,Images/video-storytelling-videobirthday__amwPjAcoC8-shot39_3/img112.jpg,Images/video-storytelling-videobirthday__amwPjAcoC8-shot39_3/img114.jpg,2020,21,0,2022-06-15_16h09.27.543,annotation,2021.2.3,Win32,75.00750075,,
,,,,,,,,,,,,,,,,,-0.213888889,-0.135185185,1,0,0,image_6,0,36,36,8,1,1233,A man sitting on a chair in front of a table.,M,0,6,MSR-VTT-videoTestVideo_video8917-shot1_0,Images/MSR-VTT-videoTestVideo_video8917-shot1_0/img0.jpg,Images/MSR-VTT-videoTestVideo_video8917-shot1_0/img25.jpg,Images/MSR-VTT-videoTestVideo_video8917-shot1_0/img69.jpg,Images/MSR-VTT-videoTestVideo_video8917-shot1_0/img75.jpg,Images/MSR-VTT-videoTestVideo_video8917-shot1_0/img87.jpg,Images/MSR-VTT-videoTestVideo_video8917-shot1_0/img100.jpg,Images/MSR-VTT-videoTestVideo_video8917-shot1_0/img107.jpg,Images/MSR-VTT-videoTestVideo_video8917-shot1_0/img151.jpg,Images/MSR-VTT-videoTestVideo_video8917-shot1_0/img198.jpg,Images/MSR-VTT-videoTestVideo_video8917-shot1_0/img261.jpg,17,21,0,2022-06-15_16h09.27.543,annotation,2021.2.3,Win32,75.00750075,,
,,,,,,,,,,,,,,,,,0.290740741,0.12962963,1,0,0,image_3,0,37,37,53,1,1503,A baby laying on a bed with a blanket.,M,0,5,video-storytelling-videochristmas_5RR_sRzKODA-shot23_1,Images/video-storytelling-videochristmas_5RR_sRzKODA-shot23_1/img137.jpg,Images/video-storytelling-videochristmas_5RR_sRzKODA-shot23_1/img139.jpg,Images/video-storytelling-videochristmas_5RR_sRzKODA-shot23_1/img143.jpg,Images/video-storytelling-videochristmas_5RR_sRzKODA-shot23_1/img145.jpg,Images/video-storytelling-videochristmas_5RR_sRzKODA-shot23_1/img147.jpg,Images/video-storytelling-videochristmas_5RR_sRzKODA-shot23_1/img149.jpg,Images/video-storytelling-videochristmas_5RR_sRzKODA-shot23_1/img152.jpg,Images/video-storytelling-videochristmas_5RR_sRzKODA-shot23_1/img153.jpg,Images/video-storytelling-videochristmas_5RR_sRzKODA-shot23_1/img156.jpg,Images/video-storytelling-videochristmas_5RR_sRzKODA-shot23_1/img157.jpg,1968,21,0,2022-06-15_16h09.27.543,annotation,2021.2.3,Win32,75.00750075,,
,,,,,,,,,,,,,,,,,0.003703704,0.139814815,1,0,0,image_2,0,38,38,32,1,1294,A couple of people walking down a stairway.,M,0,3,MSR-VTT-videoTestVideo_video8574-shot1_0,Images/MSR-VTT-videoTestVideo_video8574-shot1_0/img0.jpg,Images/MSR-VTT-videoTestVideo_video8574-shot1_0/img5.jpg,Images/MSR-VTT-videoTestVideo_video8574-shot1_0/img8.jpg,Images/MSR-VTT-videoTestVideo_video8574-shot1_0/img9.jpg,Images/MSR-VTT-videoTestVideo_video8574-shot1_0/img11.jpg,Images/MSR-VTT-videoTestVideo_video8574-shot1_0/img13.jpg,Images/MSR-VTT-videoTestVideo_video8574-shot1_0/img15.jpg,Images/MSR-VTT-videoTestVideo_video8574-shot1_0/img19.jpg,Images/MSR-VTT-videoTestVideo_video8574-shot1_0/img23.jpg,Images/MSR-VTT-videoTestVideo_video8574-shot1_0/img31.jpg,531,21,0,2022-06-15_16h09.27.543,annotation,2021.2.3,Win32,75.00750075,,
,,,,,,,,,,,,,,,,,0.071296296,0.118518519,1,0,0,image_2,0,39,39,15,1,138,The ball is in the air near the blue player on the white team.,H,0,2,MSR-VTT-videoTestVideo_video8465-shot1_2,Images/MSR-VTT-videoTestVideo_video8465-shot1_2/img98.jpg,Images/MSR-VTT-videoTestVideo_video8465-shot1_2/img102.jpg,Images/MSR-VTT-videoTestVideo_video8465-shot1_2/img108.jpg,Images/MSR-VTT-videoTestVideo_video8465-shot1_2/img119.jpg,Images/MSR-VTT-videoTestVideo_video8465-shot1_2/img125.jpg,Images/MSR-VTT-videoTestVideo_video8465-shot1_2/img159.jpg,Images/MSR-VTT-videoTestVideo_video8465-shot1_2/img168.jpg,Images/MSR-VTT-videoTestVideo_video8465-shot1_2/img179.jpg,Images/MSR-VTT-videoTestVideo_video8465-shot1_2/img188.jpg,Images/MSR-VTT-videoTestVideo_video8465-shot1_2/img197.jpg,1250,21,0,2022-06-15_16h09.27.543,annotation,2021.2.3,Win32,75.00750075,,
,,,,,,,,,,,,,,,,,0.541666667,0.144444444,1,0,0,image_4,0,40,40,7,1,1438,A couple of people standing in front of a yard.,M,0,1,video-storytelling-videobirthday__amwPjAcoC8-shot66_4,Images/video-storytelling-videobirthday__amwPjAcoC8-shot66_4/img135.jpg,Images/video-storytelling-videobirthday__amwPjAcoC8-shot66_4/img137.jpg,Images/video-storytelling-videobirthday__amwPjAcoC8-shot66_4/img139.jpg,Images/video-storytelling-videobirthday__amwPjAcoC8-shot66_4/img140.jpg,Images/video-storytelling-videobirthday__amwPjAcoC8-shot66_4/img142.jpg,Images/video-storytelling-videobirthday__amwPjAcoC8-shot66_4/img143.jpg,Images/video-storytelling-videobirthday__amwPjAcoC8-shot66_4/img147.jpg,Images/video-storytelling-videobirthday__amwPjAcoC8-shot66_4/img148.jpg,Images/video-storytelling-videobirthday__amwPjAcoC8-shot66_4/img157.jpg,Images/video-storytelling-videobirthday__amwPjAcoC8-shot66_4/img159.jpg,2017,21,0,2022-06-15_16h09.27.543,annotation,2021.2.3,Win32,75.00750075,,
,,,,,,,,,,,,,,,,,-0.230555556,0.161111111,1,0,0,image_1,0,41,41,36,1,552,the person in the white shirt is facing directly to the left while the person jumping on the bed is facing directly to the right,H,0,1,video-storytelling-videobirthday_fwpYnUDbusw-shot66_0,Images/video-storytelling-videobirthday_fwpYnUDbusw-shot66_0/img6.jpg,Images/video-storytelling-videobirthday_fwpYnUDbusw-shot66_0/img11.jpg,Images/video-storytelling-videobirthday_fwpYnUDbusw-shot66_0/img21.jpg,Images/video-storytelling-videobirthday_fwpYnUDbusw-shot66_0/img23.jpg,Images/video-storytelling-videobirthday_fwpYnUDbusw-shot66_0/img27.jpg,Images/video-storytelling-videobirthday_fwpYnUDbusw-shot66_0/img34.jpg,Images/video-storytelling-videobirthday_fwpYnUDbusw-shot66_0/img37.jpg,Images/video-storytelling-videobirthday_fwpYnUDbusw-shot66_0/img44.jpg,Images/video-storytelling-videobirthday_fwpYnUDbusw-shot66_0/img50.jpg,Images/video-storytelling-videobirthday_fwpYnUDbusw-shot66_0/img58.jpg,969,21,0,2022-06-15_16h09.27.543,annotation,2021.2.3,Win32,75.00750075,,
,,,,,,,,,,,,,,,,,-0.491666667,0.127777778,1,0,0,image_0,0,42,42,56,1,1821,A person is mixing chocolate and marshmallows in a bowl.,M,0,0,YouCook-video0097-shot21_0,Images/YouCook-video0097-shot21_0/img2.jpg,Images/YouCook-video0097-shot21_0/img8.jpg,Images/YouCook-video0097-shot21_0/img10.jpg,Images/YouCook-video0097-shot21_0/img13.jpg,Images/YouCook-video0097-shot21_0/img169.jpg,Images/YouCook-video0097-shot21_0/img173.jpg,Images/YouCook-video0097-shot21_0/img175.jpg,Images/YouCook-video0097-shot21_0/img178.jpg,Images/YouCook-video0097-shot21_0/img180.jpg,Images/YouCook-video0097-shot21_0/img182.jpg,549,21,0,2022-06-15_16h09.27.543,annotation,2021.2.3,Win32,75.00750075,,
,,,,,,,,,,,,,,,,,-0.230555556,0.132407407,1,0,0,image_1,0,43,43,17,1,105,The pastor is looking directly at the groom.  He has a smirk on his face and his mouth is completely closed. ,H,0,0,video-storytelling-videowedding_Bp8t824h5NE-shot69_0,Images/video-storytelling-videowedding_Bp8t824h5NE-shot69_0/img0.jpg,Images/video-storytelling-videowedding_Bp8t824h5NE-shot69_0/img13.jpg,Images/video-storytelling-videowedding_Bp8t824h5NE-shot69_0/img95.jpg,Images/video-storytelling-videowedding_Bp8t824h5NE-shot69_0/img130.jpg,Images/video-storytelling-videowedding_Bp8t824h5NE-shot69_0/img145.jpg,Images/video-storytelling-videowedding_Bp8t824h5NE-shot69_0/img152.jpg,Images/video-storytelling-videowedding_Bp8t824h5NE-shot69_0/img164.jpg,Images/video-storytelling-videowedding_Bp8t824h5NE-shot69_0/img195.jpg,Images/video-storytelling-videowedding_Bp8t824h5NE-shot69_0/img205.jpg,Images/video-storytelling-videowedding_Bp8t824h5NE-shot69_0/img226.jpg,1742,21,0,2022-06-15_16h09.27.543,annotation,2021.2.3,Win32,75.00750075,,
,,,,,,,,,,,,,,,,,0.564814815,0.15462963,1,0,0,image_4,0,44,44,42,1,434,"The little boy in a gingham shirt is facing away from the camera. The woman next to him's eyes are visible, but her mouth is not visible.",H,0,8,video-storytelling-videowedding_Bp8t824h5NE-shot46_0,Images/video-storytelling-videowedding_Bp8t824h5NE-shot46_0/img0.jpg,Images/video-storytelling-videowedding_Bp8t824h5NE-shot46_0/img9.jpg,Images/video-storytelling-videowedding_Bp8t824h5NE-shot46_0/img20.jpg,Images/video-storytelling-videowedding_Bp8t824h5NE-shot46_0/img27.jpg,Images/video-storytelling-videowedding_Bp8t824h5NE-shot46_0/img39.jpg,Images/video-storytelling-videowedding_Bp8t824h5NE-shot46_0/img50.jpg,Images/video-storytelling-videowedding_Bp8t824h5NE-shot46_0/img61.jpg,Images/video-storytelling-videowedding_Bp8t824h5NE-shot46_0/img65.jpg,Images/video-storytelling-videowedding_Bp8t824h5NE-shot46_0/img76.jpg,Images/video-storytelling-videowedding_Bp8t824h5NE-shot46_0/img81.jpg,735,21,0,2022-06-15_16h09.27.543,annotation,2021.2.3,Win32,75.00750075,,
,,,,,,,,,,,,,,,,,0.302777778,0.139814815,1,0,0,image_3,0,45,45,54,1,1252,A group of people standing next to a lake.,M,0,7,video-storytelling-videocamping_dBXYM3dQTSo-shot42_2,Images/video-storytelling-videocamping_dBXYM3dQTSo-shot42_2/img107.jpg,Images/video-storytelling-videocamping_dBXYM3dQTSo-shot42_2/img111.jpg,Images/video-storytelling-videocamping_dBXYM3dQTSo-shot42_2/img114.jpg,Images/video-storytelling-videocamping_dBXYM3dQTSo-shot42_2/img118.jpg,Images/video-storytelling-videocamping_dBXYM3dQTSo-shot42_2/img120.jpg,Images/video-storytelling-videocamping_dBXYM3dQTSo-shot42_2/img130.jpg,Images/video-storytelling-videocamping_dBXYM3dQTSo-shot42_2/img135.jpg,Images/video-storytelling-videocamping_dBXYM3dQTSo-shot42_2/img140.jpg,Images/video-storytelling-videocamping_dBXYM3dQTSo-shot42_2/img143.jpg,Images/video-storytelling-videocamping_dBXYM3dQTSo-shot42_2/img146.jpg,109,21,0,2022-06-15_16h09.27.543,annotation,2021.2.3,Win32,75.00750075,,
,,,,,,,,,,,,,,,,,0.478703704,0.165740741,1,0,0,image_4,0,46,46,9,1,322,The top flap of the box has been opened and the person is reaching their hands inside the box to start to open the other flaps. ,H,0,8,MSR-VTT-videoTestVideo_video8765-shot1_2,Images/MSR-VTT-videoTestVideo_video8765-shot1_2/img51.jpg,Images/MSR-VTT-videoTestVideo_video8765-shot1_2/img56.jpg,Images/MSR-VTT-videoTestVideo_video8765-shot1_2/img64.jpg,Images/MSR-VTT-videoTestVideo_video8765-shot1_2/img76.jpg,Images/MSR-VTT-videoTestVideo_video8765-shot1_2/img88.jpg,Images/MSR-VTT-videoTestVideo_video8765-shot1_2/img113.jpg,Images/MSR-VTT-videoTestVideo_video8765-shot1_2/img120.jpg,Images/MSR-VTT-videoTestVideo_video8765-shot1_2/img143.jpg,Images/MSR-VTT-videoTestVideo_video8765-shot1_2/img173.jpg,Images/MSR-VTT-videoTestVideo_video8765-shot1_2/img181.jpg,128,21,0,2022-06-15_16h09.27.543,annotation,2021.2.3,Win32,75.00750075,,
,,,,,,,,,,,,,,,,,0.271296296,-0.10462963,1,0,0,image_8,0,47,47,31,1,1459,A little girl standing next to a dog on the floor.,M,0,1,video-storytelling-videochristmas_5RR_sRzKODA-shot17_9,Images/video-storytelling-videochristmas_5RR_sRzKODA-shot17_9/img453.jpg,Images/video-storytelling-videochristmas_5RR_sRzKODA-shot17_9/img464.jpg,Images/video-storytelling-videochristmas_5RR_sRzKODA-shot17_9/img472.jpg,Images/video-storytelling-videochristmas_5RR_sRzKODA-shot17_9/img484.jpg,Images/video-storytelling-videochristmas_5RR_sRzKODA-shot17_9/img492.jpg,Images/video-storytelling-videochristmas_5RR_sRzKODA-shot17_9/img501.jpg,Images/video-storytelling-videochristmas_5RR_sRzKODA-shot17_9/img515.jpg,Images/video-storytelling-videochristmas_5RR_sRzKODA-shot17_9/img521.jpg,Images/video-storytelling-videochristmas_5RR_sRzKODA-shot17_9/img527.jpg,Images/video-storytelling-videochristmas_5RR_sRzKODA-shot17_9/img534.jpg,1394,21,0,2022-06-15_16h09.27.543,annotation,2021.2.3,Win32,75.00750075,,
,,,,,,,,,,,,,,,,,-0.492592593,0.137037037,1,0,0,image_0,0,48,48,34,1,1699,A close up of a close up of a toy car.,M,0,8,MSR-VTT-videoTestVideo_video8108-shot1_1,Images/MSR-VTT-videoTestVideo_video8108-shot1_1/img91.jpg,Images/MSR-VTT-videoTestVideo_video8108-shot1_1/img98.jpg,Images/MSR-VTT-videoTestVideo_video8108-shot1_1/img108.jpg,Images/MSR-VTT-videoTestVideo_video8108-shot1_1/img120.jpg,Images/MSR-VTT-videoTestVideo_video8108-shot1_1/img124.jpg,Images/MSR-VTT-videoTestVideo_video8108-shot1_1/img131.jpg,Images/MSR-VTT-videoTestVideo_video8108-shot1_1/img143.jpg,Images/MSR-VTT-videoTestVideo_video8108-shot1_1/img148.jpg,Images/MSR-VTT-videoTestVideo_video8108-shot1_1/img153.jpg,Images/MSR-VTT-videoTestVideo_video8108-shot1_1/img163.jpg,1936,21,0,2022-06-15_16h09.27.543,annotation,2021.2.3,Win32,75.00750075,,
,,,,,,,,,,,,,,,,,0.532407407,0.142592593,1,0,0,image_4,0,49,49,27,1,1156,A group of women playing basketball on a court.,M,0,4,MSR-VTT-videoTestVideo_video8064-shot5_0,Images/MSR-VTT-videoTestVideo_video8064-shot5_0/img0.jpg,Images/MSR-VTT-videoTestVideo_video8064-shot5_0/img3.jpg,Images/MSR-VTT-videoTestVideo_video8064-shot5_0/img10.jpg,Images/MSR-VTT-videoTestVideo_video8064-shot5_0/img26.jpg,Images/MSR-VTT-videoTestVideo_video8064-shot5_0/img31.jpg,Images/MSR-VTT-videoTestVideo_video8064-shot5_0/img34.jpg,Images/MSR-VTT-videoTestVideo_video8064-shot5_0/img37.jpg,Images/MSR-VTT-videoTestVideo_video8064-shot5_0/img39.jpg,Images/MSR-VTT-videoTestVideo_video8064-shot5_0/img41.jpg,Images/MSR-VTT-videoTestVideo_video8064-shot5_0/img43.jpg,1543,21,0,2022-06-15_16h09.27.543,annotation,2021.2.3,Win32,75.00750075,,
,,,,,,,,,,,,,,,,,0.526851852,-0.151851852,1,0,0,image_9,0,50,50,47,1,1636,A woman standing in front of a crowd of people.,M,0,4,video-storytelling-videowedding_Bp8t824h5NE-shot45_0,Images/video-storytelling-videowedding_Bp8t824h5NE-shot45_0/img0.jpg,Images/video-storytelling-videowedding_Bp8t824h5NE-shot45_0/img6.jpg,Images/video-storytelling-videowedding_Bp8t824h5NE-shot45_0/img23.jpg,Images/video-storytelling-videowedding_Bp8t824h5NE-shot45_0/img46.jpg,Images/video-storytelling-videowedding_Bp8t824h5NE-shot45_0/img55.jpg,Images/video-storytelling-videowedding_Bp8t824h5NE-shot45_0/img91.jpg,Images/video-storytelling-videowedding_Bp8t824h5NE-shot45_0/img137.jpg,Images/video-storytelling-videowedding_Bp8t824h5NE-shot45_0/img151.jpg,Images/video-storytelling-videowedding_Bp8t824h5NE-shot45_0/img181.jpg,Images/video-storytelling-videowedding_Bp8t824h5NE-shot45_0/img236.jpg,698,21,0,2022-06-15_16h09.27.543,annotation,2021.2.3,Win32,75.00750075,,
,,,,,,,,,,,,,,,,,-0.516666667,-0.152777778,1,0,0,image_5,0,51,51,2,1,87,A man is standing with his arms out from his sides pointed downwards.  He has a serious look on his face.,H,0,5,MSR-VTT-videoTestVideo_video8777-shot1_1,Images/MSR-VTT-videoTestVideo_video8777-shot1_1/img95.jpg,Images/MSR-VTT-videoTestVideo_video8777-shot1_1/img230.jpg,Images/MSR-VTT-videoTestVideo_video8777-shot1_1/img231.jpg,Images/MSR-VTT-videoTestVideo_video8777-shot1_1/img232.jpg,Images/MSR-VTT-videoTestVideo_video8777-shot1_1/img237.jpg,Images/MSR-VTT-videoTestVideo_video8777-shot1_1/img243.jpg,Images/MSR-VTT-videoTestVideo_video8777-shot1_1/img253.jpg,Images/MSR-VTT-videoTestVideo_video8777-shot1_1/img283.jpg,Images/MSR-VTT-videoTestVideo_video8777-shot1_1/img305.jpg,Images/MSR-VTT-videoTestVideo_video8777-shot1_1/img308.jpg,624,21,0,2022-06-15_16h09.27.543,annotation,2021.2.3,Win32,75.00750075,,
,,,,,,,,,,,,,,,,,0.000925926,0.172222222,1,0,0,image_2,0,52,52,0,1,898,No text on the object can be seen. The base of the thumb on the right hand can be seen but the pinky finger can't be seen. ,H,0,3,MSR-VTT-videoTestVideo_video9651-shot1_0,Images/MSR-VTT-videoTestVideo_video9651-shot1_0/img0.jpg,Images/MSR-VTT-videoTestVideo_video9651-shot1_0/img4.jpg,Images/MSR-VTT-videoTestVideo_video9651-shot1_0/img9.jpg,Images/MSR-VTT-videoTestVideo_video9651-shot1_0/img10.jpg,Images/MSR-VTT-videoTestVideo_video9651-shot1_0/img12.jpg,Images/MSR-VTT-videoTestVideo_video9651-shot1_0/img13.jpg,Images/MSR-VTT-videoTestVideo_video9651-shot1_0/img18.jpg,Images/MSR-VTT-videoTestVideo_video9651-shot1_0/img36.jpg,Images/MSR-VTT-videoTestVideo_video9651-shot1_0/img68.jpg,Images/MSR-VTT-videoTestVideo_video9651-shot1_0/img90.jpg,1864,21,0,2022-06-15_16h09.27.543,annotation,2021.2.3,Win32,75.00750075,,
,,,,,,,,,,,,,,,,,0.218518519,-0.147222222,1,0,0,image_8,0,53,53,6,1,1037,An overlay of the man singing is just beginning to appear on top of the image. In the overlaid image that man's mouth can not be clearly seen.,H,0,8,MSR-VTT-videoTestVideo_video8861-shot0_0,Images/MSR-VTT-videoTestVideo_video8861-shot0_0/img0.jpg,Images/MSR-VTT-videoTestVideo_video8861-shot0_0/img4.jpg,Images/MSR-VTT-videoTestVideo_video8861-shot0_0/img15.jpg,Images/MSR-VTT-videoTestVideo_video8861-shot0_0/img37.jpg,Images/MSR-VTT-videoTestVideo_video8861-shot0_0/img54.jpg,Images/MSR-VTT-videoTestVideo_video8861-shot0_0/img64.jpg,Images/MSR-VTT-videoTestVideo_video8861-shot0_0/img72.jpg,Images/MSR-VTT-videoTestVideo_video8861-shot0_0/img101.jpg,Images/MSR-VTT-videoTestVideo_video8861-shot0_0/img106.jpg,Images/MSR-VTT-videoTestVideo_video8861-shot0_0/img108.jpg,589,21,0,2022-06-15_16h09.27.543,annotation,2021.2.3,Win32,75.00750075,,
,,,,,,,,,,,,,,,,,0.521296296,-0.197222222,1,0,0,image_9,0,54,54,29,1,359,The man is reaching back toward the camera.  He is looking at the camera and slightly smiling. ,H,0,9,video-storytelling-videocamping_dBXYM3dQTSo-shot39_2,Images/video-storytelling-videocamping_dBXYM3dQTSo-shot39_2/img87.jpg,Images/video-storytelling-videocamping_dBXYM3dQTSo-shot39_2/img89.jpg,Images/video-storytelling-videocamping_dBXYM3dQTSo-shot39_2/img92.jpg,Images/video-storytelling-videocamping_dBXYM3dQTSo-shot39_2/img99.jpg,Images/video-storytelling-videocamping_dBXYM3dQTSo-shot39_2/img101.jpg,Images/video-storytelling-videocamping_dBXYM3dQTSo-shot39_2/img106.jpg,Images/video-storytelling-videocamping_dBXYM3dQTSo-shot39_2/img115.jpg,Images/video-storytelling-videocamping_dBXYM3dQTSo-shot39_2/img134.jpg,Images/video-storytelling-videocamping_dBXYM3dQTSo-shot39_2/img150.jpg,Images/video-storytelling-videocamping_dBXYM3dQTSo-shot39_2/img166.jpg,522,21,0,2022-06-15_16h09.27.543,annotation,2021.2.3,Win32,75.00750075,,
,,,,,,,,,,,,,,,,,0.057407407,0.127777778,1,0,0,image_2,0,55,55,4,1,371,The bottle on the sink is picked up by the man. ,H,0,2,MSR-VTT-videoTestVideo_video9267-shot3_0,Images/MSR-VTT-videoTestVideo_video9267-shot3_0/img0.jpg,Images/MSR-VTT-videoTestVideo_video9267-shot3_0/img6.jpg,Images/MSR-VTT-videoTestVideo_video9267-shot3_0/img12.jpg,Images/MSR-VTT-videoTestVideo_video9267-shot3_0/img13.jpg,Images/MSR-VTT-videoTestVideo_video9267-shot3_0/img14.jpg,Images/MSR-VTT-videoTestVideo_video9267-shot3_0/img17.jpg,Images/MSR-VTT-videoTestVideo_video9267-shot3_0/img19.jpg,Images/MSR-VTT-videoTestVideo_video9267-shot3_0/img23.jpg,Images/MSR-VTT-videoTestVideo_video9267-shot3_0/img24.jpg,Images/MSR-VTT-videoTestVideo_video9267-shot3_0/img26.jpg,797,21,0,2022-06-15_16h09.27.543,annotation,2021.2.3,Win32,75.00750075,,
,,,,,,,,,,,,,,,,,-0.460185185,-0.149074074,1,0,0,image_5,0,56,56,13,1,1668,A close up of a car on the side of a street.,M,0,5,MSR-VTT-videoTestVideo_video9706-shot1_0,Images/MSR-VTT-videoTestVideo_video9706-shot1_0/img0.jpg,Images/MSR-VTT-videoTestVideo_video9706-shot1_0/img9.jpg,Images/MSR-VTT-videoTestVideo_video9706-shot1_0/img22.jpg,Images/MSR-VTT-videoTestVideo_video9706-shot1_0/img24.jpg,Images/MSR-VTT-videoTestVideo_video9706-shot1_0/img34.jpg,Images/MSR-VTT-videoTestVideo_video9706-shot1_0/img49.jpg,Images/MSR-VTT-videoTestVideo_video9706-shot1_0/img55.jpg,Images/MSR-VTT-videoTestVideo_video9706-shot1_0/img66.jpg,Images/MSR-VTT-videoTestVideo_video9706-shot1_0/img67.jpg,Images/MSR-VTT-videoTestVideo_video9706-shot1_0/img77.jpg,1476,21,0,2022-06-15_16h09.27.543,annotation,2021.2.3,Win32,75.00750075,,
,,,,,,,,,,,,,,,,,-0.516666667,0.100925926,1,0,0,image_0,0,57,57,23,1,354,"The spoon is in front of a green area. The spoon is empty, nothing is coming out of it.",H,1,6,MSR-VTT-videoTestVideo_video9693-shot2_1,Images/MSR-VTT-videoTestVideo_video9693-shot2_1/img68.jpg,Images/MSR-VTT-videoTestVideo_video9693-shot2_1/img85.jpg,Images/MSR-VTT-videoTestVideo_video9693-shot2_1/img117.jpg,Images/MSR-VTT-videoTestVideo_video9693-shot2_1/img121.jpg,Images/MSR-VTT-videoTestVideo_video9693-shot2_1/img128.jpg,Images/MSR-VTT-videoTestVideo_video9693-shot2_1/img132.jpg,Images/MSR-VTT-videoTestVideo_video9693-shot2_1/img134.jpg,Images/MSR-VTT-videoTestVideo_video9693-shot2_1/img152.jpg,Images/MSR-VTT-videoTestVideo_video9693-shot2_1/img155.jpg,Images/MSR-VTT-videoTestVideo_video9693-shot2_1/img158.jpg,1350,21,0,2022-06-15_16h09.27.543,annotation,2021.2.3,Win32,75.00750075,,
,,,,,,,,,,,,,,,,,-0.00462963,0.173148148,1,0,0,image_2,0,58,58,18,1,1688,A group of women standing on a dirt road.,M,0,0,video-storytelling-videocamping_1OzbiB1TIWI-shot14_9,Images/video-storytelling-videocamping_1OzbiB1TIWI-shot14_9/img1112.jpg,Images/video-storytelling-videocamping_1OzbiB1TIWI-shot14_9/img1119.jpg,Images/video-storytelling-videocamping_1OzbiB1TIWI-shot14_9/img1127.jpg,Images/video-storytelling-videocamping_1OzbiB1TIWI-shot14_9/img1139.jpg,Images/video-storytelling-videocamping_1OzbiB1TIWI-shot14_9/img1143.jpg,Images/video-storytelling-videocamping_1OzbiB1TIWI-shot14_9/img1149.jpg,Images/video-storytelling-videocamping_1OzbiB1TIWI-shot14_9/img1153.jpg,Images/video-storytelling-videocamping_1OzbiB1TIWI-shot14_9/img1156.jpg,Images/video-storytelling-videocamping_1OzbiB1TIWI-shot14_9/img1161.jpg,Images/video-storytelling-videocamping_1OzbiB1TIWI-shot14_9/img1166.jpg,1117,21,0,2022-06-15_16h09.27.543,annotation,2021.2.3,Win32,75.00750075,,
,,,,,,,,,,,,,,,,,-0.200925926,0.206481481,1,0,0,image_1,0,59,59,40,1,153,"The boy has fully opened the toy and is in the process of tossing the wrapping paper behind him, with some of the paper sticking out in front of him and some behind",H,0,1,video-storytelling-videochristmas_5RR_sRzKODA-shot20_12,Images/video-storytelling-videochristmas_5RR_sRzKODA-shot20_12/img596.jpg,Images/video-storytelling-videochristmas_5RR_sRzKODA-shot20_12/img601.jpg,Images/video-storytelling-videochristmas_5RR_sRzKODA-shot20_12/img608.jpg,Images/video-storytelling-videochristmas_5RR_sRzKODA-shot20_12/img611.jpg,Images/video-storytelling-videochristmas_5RR_sRzKODA-shot20_12/img612.jpg,Images/video-storytelling-videochristmas_5RR_sRzKODA-shot20_12/img614.jpg,Images/video-storytelling-videochristmas_5RR_sRzKODA-shot20_12/img618.jpg,Images/video-storytelling-videochristmas_5RR_sRzKODA-shot20_12/img621.jpg,Images/video-storytelling-videochristmas_5RR_sRzKODA-shot20_12/img626.jpg,Images/video-storytelling-videochristmas_5RR_sRzKODA-shot20_12/img632.jpg,441,21,0,2022-06-15_16h09.27.543,annotation,2021.2.3,Win32,75.00750075,,
,,,,,,,,,,,,,,,,,0.27962963,0.148148148,1,0,0,image_3,0,60,60,35,1,546,The wrestle's elbow is below the first rope.,H,0,3,MSR-VTT-videoTestVideo_video8310-shot1_5,Images/MSR-VTT-videoTestVideo_video8310-shot1_5/img323.jpg,Images/MSR-VTT-videoTestVideo_video8310-shot1_5/img328.jpg,Images/MSR-VTT-videoTestVideo_video8310-shot1_5/img334.jpg,Images/MSR-VTT-videoTestVideo_video8310-shot1_5/img338.jpg,Images/MSR-VTT-videoTestVideo_video8310-shot1_5/img342.jpg,Images/MSR-VTT-videoTestVideo_video8310-shot1_5/img343.jpg,Images/MSR-VTT-videoTestVideo_video8310-shot1_5/img349.jpg,Images/MSR-VTT-videoTestVideo_video8310-shot1_5/img354.jpg,Images/MSR-VTT-videoTestVideo_video8310-shot1_5/img359.jpg,Images/MSR-VTT-videoTestVideo_video8310-shot1_5/img362.jpg,174,21,0,2022-06-15_16h09.27.543,annotation,2021.2.3,Win32,75.00750075,,
,,,,,,,,,,,,,,,,,0.530555556,0.127777778,1,0,0,image_4,0,61,61,26,1,408,There is equal picture overlay of a room with many people in it and a carriage with some people on it. ,H,0,1,MSR-VTT-videoTestVideo_video9297-shot0_1,Images/MSR-VTT-videoTestVideo_video9297-shot0_1/img45.jpg,Images/MSR-VTT-videoTestVideo_video9297-shot0_1/img76.jpg,Images/MSR-VTT-videoTestVideo_video9297-shot0_1/img78.jpg,Images/MSR-VTT-videoTestVideo_video9297-shot0_1/img80.jpg,Images/MSR-VTT-videoTestVideo_video9297-shot0_1/img82.jpg,Images/MSR-VTT-videoTestVideo_video9297-shot0_1/img91.jpg,Images/MSR-VTT-videoTestVideo_video9297-shot0_1/img93.jpg,Images/MSR-VTT-videoTestVideo_video9297-shot0_1/img98.jpg,Images/MSR-VTT-videoTestVideo_video9297-shot0_1/img106.jpg,Images/MSR-VTT-videoTestVideo_video9297-shot0_1/img115.jpg,1141,21,0,2022-06-15_16h09.27.543,annotation,2021.2.3,Win32,75.00750075,,
,,,,,,,,,,,,,,,,,-0.47037037,0.14537037,1,0,0,image_0,0,62,62,49,1,1476,A group of people standing around a table.,M,0,0,video-storytelling-videowedding_de8dLXvgV-I-shot28_0,Images/video-storytelling-videowedding_de8dLXvgV-I-shot28_0/img0.jpg,Images/video-storytelling-videowedding_de8dLXvgV-I-shot28_0/img60.jpg,Images/video-storytelling-videowedding_de8dLXvgV-I-shot28_0/img68.jpg,Images/video-storytelling-videowedding_de8dLXvgV-I-shot28_0/img81.jpg,Images/video-storytelling-videowedding_de8dLXvgV-I-shot28_0/img87.jpg,Images/video-storytelling-videowedding_de8dLXvgV-I-shot28_0/img114.jpg,Images/video-storytelling-videowedding_de8dLXvgV-I-shot28_0/img121.jpg,Images/video-storytelling-videowedding_de8dLXvgV-I-shot28_0/img179.jpg,Images/video-storytelling-videowedding_de8dLXvgV-I-shot28_0/img221.jpg,Images/video-storytelling-videowedding_de8dLXvgV-I-shot28_0/img248.jpg,65,21,0,2022-06-15_16h09.27.543,annotation,2021.2.3,Win32,75.00750075,,
,,,,,,,,,,,,,,,,,,,,,,,,,,,,,,,,,,,,,,,,,,,,,,,2022-06-15_16h09.27.543,annotation,2021.2.3,Win32,75.00750075,space,44.5377
