mturk,key_resp_2.keys,key_resp_2.rt,key_resp_3.keys,key_resp_3.rt,mouse_2.x,mouse_2.y,mouse_2.leftButton,mouse_2.midButton,mouse_2.rightButton,mouse_2.clicked_name,key_resp_5.keys,key_resp_5.rt,key_resp.keys,key_resp.rt,key_resp_6.keys,key_resp_6.rt,mouse.x,mouse.y,mouse.leftButton,mouse.midButton,mouse.rightButton,mouse.clicked_name,trials.thisRepN,trials.thisTrialN,trials.thisN,trials.thisIndex,trials.ran,N,caption,class_caption,model_guessed,target_idx,image_set,img1,img2,img3,img4,img5,img6,img7,img8,img9,img10,Q_id,block,is_check,date,expName,psychopyVersion,OS,frameRate,key_resp_7.keys,key_resp_7.rt
5673886,space,3.67,space,2.869,0.2224,0.116,1,0,0,ex4,space,4.097,space,2.935,space,16.918,-0.4544,0.1464,1,0,0,image_0,0,0,0,48,1,1175,A man standing next to a child in a chair.,M,0,7,MSR-VTT-videoTestVideo_video8522-shot1_1,Images/MSR-VTT-videoTestVideo_video8522-shot1_1/img151.jpg,Images/MSR-VTT-videoTestVideo_video8522-shot1_1/img154.jpg,Images/MSR-VTT-videoTestVideo_video8522-shot1_1/img158.jpg,Images/MSR-VTT-videoTestVideo_video8522-shot1_1/img160.jpg,Images/MSR-VTT-videoTestVideo_video8522-shot1_1/img162.jpg,Images/MSR-VTT-videoTestVideo_video8522-shot1_1/img165.jpg,Images/MSR-VTT-videoTestVideo_video8522-shot1_1/img167.jpg,Images/MSR-VTT-videoTestVideo_video8522-shot1_1/img169.jpg,Images/MSR-VTT-videoTestVideo_video8522-shot1_1/img171.jpg,Images/MSR-VTT-videoTestVideo_video8522-shot1_1/img172.jpg,119,26,0,2022-06-16_03h17.22.335,annotation,2021.2.3,Win32,60.0024001,,
,,,,,,,,,,,,,,,,,0.0384,-0.1464,1,0,0,image_7,0,1,1,2,1,2015,A bag of eggs in a bag on a shelf.,M,1,7,MSR-VTT-videoTestVideo_video9053-shot1_8,Images/MSR-VTT-videoTestVideo_video9053-shot1_8/img370.jpg,Images/MSR-VTT-videoTestVideo_video9053-shot1_8/img371.jpg,Images/MSR-VTT-videoTestVideo_video9053-shot1_8/img376.jpg,Images/MSR-VTT-videoTestVideo_video9053-shot1_8/img379.jpg,Images/MSR-VTT-videoTestVideo_video9053-shot1_8/img381.jpg,Images/MSR-VTT-videoTestVideo_video9053-shot1_8/img383.jpg,Images/MSR-VTT-videoTestVideo_video9053-shot1_8/img386.jpg,Images/MSR-VTT-videoTestVideo_video9053-shot1_8/img388.jpg,Images/MSR-VTT-videoTestVideo_video9053-shot1_8/img391.jpg,Images/MSR-VTT-videoTestVideo_video9053-shot1_8/img394.jpg,1257,26,0,2022-06-16_03h17.22.335,annotation,2021.2.3,Win32,60.0024001,,
,,,,,,,,,,,,,,,,,0.0528,-0.1528,1,0,0,image_7,0,2,2,35,1,1467,a close up of a person with a cell phone.,M,0,9,MSR-VTT-videoTestVideo_video9682-shot0_3,Images/MSR-VTT-videoTestVideo_video9682-shot0_3/img230.jpg,Images/MSR-VTT-videoTestVideo_video9682-shot0_3/img232.jpg,Images/MSR-VTT-videoTestVideo_video9682-shot0_3/img234.jpg,Images/MSR-VTT-videoTestVideo_video9682-shot0_3/img238.jpg,Images/MSR-VTT-videoTestVideo_video9682-shot0_3/img243.jpg,Images/MSR-VTT-videoTestVideo_video9682-shot0_3/img250.jpg,Images/MSR-VTT-videoTestVideo_video9682-shot0_3/img253.jpg,Images/MSR-VTT-videoTestVideo_video9682-shot0_3/img260.jpg,Images/MSR-VTT-videoTestVideo_video9682-shot0_3/img267.jpg,Images/MSR-VTT-videoTestVideo_video9682-shot0_3/img272.jpg,460,26,0,2022-06-16_03h17.22.335,annotation,2021.2.3,Win32,60.0024001,,
,,,,,,,,,,,,,,,,,0.04,0.1576,1,0,0,image_2,0,3,3,61,1,3,A grey elephant with golden leaves on it. ,H,,2,open-images-1745_0ed62fe71809b2f5,Checks/check4/open-images-2609_3f72daeb23764ecfimg6.jpg,Checks/check4/open-images-1928_60679e2899870e08img1.jpg,Checks/check4/open-images-1745_0ed62fe71809b2f5img2.jpg,Checks/check4/open-images-1811_9ae6351c7f7565edimg0.jpg,Checks/check4/open-images-1721_6f04da11945ea492img3.jpg,Checks/check4/open-images-1907_5f9be3e4ea5e22c7img2.jpg,Checks/check4/open-images-580_0ddffb9c25141999img1.jpg,Checks/check4/open-images-2924_0645dcbcf998fed9img3.jpg,Checks/check4/open-images-869_856ecbcb5faf76e3img8.jpg,Checks/check4/open-images-250_02039517e63a91fbimg1.jpg,,,1,2022-06-16_03h17.22.335,annotation,2021.2.3,Win32,60.0024001,,
,,,,,,,,,,,,,,,,,-0.4704,-0.18,1,0,0,image_5,0,4,4,23,1,1696,A man riding on the back of a horse.,M,0,8,MSR-VTT-videoTestVideo_video9649-shot1_2,Images/MSR-VTT-videoTestVideo_video9649-shot1_2/img89.jpg,Images/MSR-VTT-videoTestVideo_video9649-shot1_2/img109.jpg,Images/MSR-VTT-videoTestVideo_video9649-shot1_2/img117.jpg,Images/MSR-VTT-videoTestVideo_video9649-shot1_2/img128.jpg,Images/MSR-VTT-videoTestVideo_video9649-shot1_2/img133.jpg,Images/MSR-VTT-videoTestVideo_video9649-shot1_2/img145.jpg,Images/MSR-VTT-videoTestVideo_video9649-shot1_2/img155.jpg,Images/MSR-VTT-videoTestVideo_video9649-shot1_2/img169.jpg,Images/MSR-VTT-videoTestVideo_video9649-shot1_2/img174.jpg,Images/MSR-VTT-videoTestVideo_video9649-shot1_2/img181.jpg,148,26,0,2022-06-16_03h17.22.335,annotation,2021.2.3,Win32,60.0024001,,
,,,,,,,,,,,,,,,,,-0.0256,-0.1656,1,0,0,image_7,0,5,5,15,1,1342,A man standing in a field with a bunch of binoculars.,M,0,8,video-storytelling-videocamping_EytINruY3-U-shot8_0,Images/video-storytelling-videocamping_EytINruY3-U-shot8_0/img0.jpg,Images/video-storytelling-videocamping_EytINruY3-U-shot8_0/img3.jpg,Images/video-storytelling-videocamping_EytINruY3-U-shot8_0/img8.jpg,Images/video-storytelling-videocamping_EytINruY3-U-shot8_0/img11.jpg,Images/video-storytelling-videocamping_EytINruY3-U-shot8_0/img17.jpg,Images/video-storytelling-videocamping_EytINruY3-U-shot8_0/img27.jpg,Images/video-storytelling-videocamping_EytINruY3-U-shot8_0/img36.jpg,Images/video-storytelling-videocamping_EytINruY3-U-shot8_0/img40.jpg,Images/video-storytelling-videocamping_EytINruY3-U-shot8_0/img47.jpg,Images/video-storytelling-videocamping_EytINruY3-U-shot8_0/img68.jpg,618,26,0,2022-06-16_03h17.22.335,annotation,2021.2.3,Win32,60.0024001,,
,,,,,,,,,,,,,,,,,0.5104,-0.14,1,0,0,image_9,0,6,6,18,1,1103,A person holding a sandwich on top of a plate.,M,0,9,YouCook-video0024-shot5_0,Images/YouCook-video0024-shot5_0/img19.jpg,Images/YouCook-video0024-shot5_0/img56.jpg,Images/YouCook-video0024-shot5_0/img114.jpg,Images/YouCook-video0024-shot5_0/img168.jpg,Images/YouCook-video0024-shot5_0/img174.jpg,Images/YouCook-video0024-shot5_0/img187.jpg,Images/YouCook-video0024-shot5_0/img276.jpg,Images/YouCook-video0024-shot5_0/img285.jpg,Images/YouCook-video0024-shot5_0/img312.jpg,Images/YouCook-video0024-shot5_0/img327.jpg,340,26,0,2022-06-16_03h17.22.335,annotation,2021.2.3,Win32,60.0024001,,
,,,,,,,,,,,,,,,,,0.512,-0.1896,1,0,0,image_9,0,7,7,57,1,638,You can see a golden object at the very top center of the picture.  You can't see the entire golden object. ,H,0,7,MSR-VTT-videoTestVideo_video8689-shot1_2,Images/MSR-VTT-videoTestVideo_video8689-shot1_2/img218.jpg,Images/MSR-VTT-videoTestVideo_video8689-shot1_2/img226.jpg,Images/MSR-VTT-videoTestVideo_video8689-shot1_2/img312.jpg,Images/MSR-VTT-videoTestVideo_video8689-shot1_2/img384.jpg,Images/MSR-VTT-videoTestVideo_video8689-shot1_2/img445.jpg,Images/MSR-VTT-videoTestVideo_video8689-shot1_2/img483.jpg,Images/MSR-VTT-videoTestVideo_video8689-shot1_2/img501.jpg,Images/MSR-VTT-videoTestVideo_video8689-shot1_2/img547.jpg,Images/MSR-VTT-videoTestVideo_video8689-shot1_2/img572.jpg,Images/MSR-VTT-videoTestVideo_video8689-shot1_2/img591.jpg,1330,26,0,2022-06-16_03h17.22.335,annotation,2021.2.3,Win32,60.0024001,,
,,,,,,,,,,,,,,,,,-0.2176,0.1624,1,0,0,image_1,0,8,8,62,1,4,A penguin holding a piece of paper with text on it. ,H,,1,open-images-2521_074d6af730ed17a6,Checks/check5/open-images-509_4d8bd994cb8c6eaeimg0.jpg,Checks/check5/open-images-2521_074d6af730ed17a6img1.jpg,Checks/check5/open-images-1365_a00a5fde334ae45aimg4.jpg,Checks/check5/open-images-1602_44092afdeab39e73img6.jpg,Checks/check5/open-images-1032_059f3cdfb85ee0ceimg3.jpg,Checks/check5/open-images-727_25b77fff36adba66img2.jpg,Checks/check5/open-images-2208_0fb92b9978d98575img2.jpg,Checks/check5/open-images-1305_05769e6abb16fdc8img9.jpg,Checks/check5/open-images-2676_052dbf7b4899430bimg1.jpg,Checks/check5/open-images-2569_1e81d79bb796a2dbimg7.jpg,,,1,2022-06-16_03h17.22.335,annotation,2021.2.3,Win32,60.0024001,,
,,,,,,,,,,,,,,,,,-0.0032,0.1112,1,0,0,image_2,0,9,9,42,1,1281,A bunch of fire hoses sitting on top of a pile of leaves.,M,0,4,video-storytelling-videocamping_EytINruY3-U-shot19_0,Images/video-storytelling-videocamping_EytINruY3-U-shot19_0/img0.jpg,Images/video-storytelling-videocamping_EytINruY3-U-shot19_0/img4.jpg,Images/video-storytelling-videocamping_EytINruY3-U-shot19_0/img27.jpg,Images/video-storytelling-videocamping_EytINruY3-U-shot19_0/img65.jpg,Images/video-storytelling-videocamping_EytINruY3-U-shot19_0/img72.jpg,Images/video-storytelling-videocamping_EytINruY3-U-shot19_0/img109.jpg,Images/video-storytelling-videocamping_EytINruY3-U-shot19_0/img111.jpg,Images/video-storytelling-videocamping_EytINruY3-U-shot19_0/img113.jpg,Images/video-storytelling-videocamping_EytINruY3-U-shot19_0/img129.jpg,Images/video-storytelling-videocamping_EytINruY3-U-shot19_0/img154.jpg,1123,26,0,2022-06-16_03h17.22.335,annotation,2021.2.3,Win32,60.0024001,,
,,,,,,,,,,,,,,,,,0.5504,0.1528,1,0,0,image_4,0,10,10,53,1,1216,A woman standing in front of a stage with a microphone in her hand.,M,1,6,MSR-VTT-videoTestVideo_video9421-shot1_1,Images/MSR-VTT-videoTestVideo_video9421-shot1_1/img102.jpg,Images/MSR-VTT-videoTestVideo_video9421-shot1_1/img106.jpg,Images/MSR-VTT-videoTestVideo_video9421-shot1_1/img145.jpg,Images/MSR-VTT-videoTestVideo_video9421-shot1_1/img200.jpg,Images/MSR-VTT-videoTestVideo_video9421-shot1_1/img214.jpg,Images/MSR-VTT-videoTestVideo_video9421-shot1_1/img222.jpg,Images/MSR-VTT-videoTestVideo_video9421-shot1_1/img226.jpg,Images/MSR-VTT-videoTestVideo_video9421-shot1_1/img229.jpg,Images/MSR-VTT-videoTestVideo_video9421-shot1_1/img233.jpg,Images/MSR-VTT-videoTestVideo_video9421-shot1_1/img249.jpg,686,26,0,2022-06-16_03h17.22.335,annotation,2021.2.3,Win32,60.0024001,,
,,,,,,,,,,,,,,,,,-0.4432,-0.116,1,0,0,image_5,0,11,11,59,1,1,The only picture of a hawk.  It is looking to the left.  You see lots of branches and darker blue sky. ,H,,5,open-images-958_686caac9c5b322e7,Checks/check2/open-images-2603_1b5152f01f0093e7img3.jpg,Checks/check2/open-images-1836_069810916ce5d675img8.jpg,Checks/check2/open-images-974_0748fdedc4bf8b7bimg2.jpg,Checks/check2/open-images-617_01fb725fb1aa7b04img6.jpg,Checks/check2/open-images-507_047769e1f977cd97img2.jpg,Checks/check2/open-images-958_686caac9c5b322e7img5.jpg,Checks/check2/open-images-1278_21851d9bf5dc05c9img7.jpg,Checks/check2/open-images-2424_05f04546e01499f2img0.jpg,Checks/check2/open-images-1529_1442b11a10a6aeadimg3.jpg,Checks/check2/open-images-514_2c523ddedc2561d4img1.jpg,,,1,2022-06-16_03h17.22.335,annotation,2021.2.3,Win32,60.0024001,,
,,,,,,,,,,,,,,,,,0.0384,-0.164,1,0,0,image_7,0,12,12,28,1,1706,A woman sitting on a bench holding a cup of coffee.,M,0,0,video-storytelling-videocamping_1OzbiB1TIWI-shot43_13,Images/video-storytelling-videocamping_1OzbiB1TIWI-shot43_13/img700.jpg,Images/video-storytelling-videocamping_1OzbiB1TIWI-shot43_13/img702.jpg,Images/video-storytelling-videocamping_1OzbiB1TIWI-shot43_13/img705.jpg,Images/video-storytelling-videocamping_1OzbiB1TIWI-shot43_13/img710.jpg,Images/video-storytelling-videocamping_1OzbiB1TIWI-shot43_13/img713.jpg,Images/video-storytelling-videocamping_1OzbiB1TIWI-shot43_13/img717.jpg,Images/video-storytelling-videocamping_1OzbiB1TIWI-shot43_13/img724.jpg,Images/video-storytelling-videocamping_1OzbiB1TIWI-shot43_13/img726.jpg,Images/video-storytelling-videocamping_1OzbiB1TIWI-shot43_13/img733.jpg,Images/video-storytelling-videocamping_1OzbiB1TIWI-shot43_13/img736.jpg,1901,26,0,2022-06-16_03h17.22.335,annotation,2021.2.3,Win32,60.0024001,,
,,,,,,,,,,,,,,,,,0.544,-0.1144,1,0,0,image_9,0,13,13,60,1,2,Green type writer with a red tape. ,H,,9,open-images-531_0dd4eb59d465a8be,Checks/check3/open-images-503_1ccd6fa641154ebbimg7.jpg,Checks/check3/open-images-1852_00faf52058ad28b8img4.jpg,Checks/check3/open-images-386_1b2e28d6d994603eimg1.jpg,Checks/check3/open-images-471_1121e9f97c200ac0img8.jpg,Checks/check3/open-images-1886_3db71eaddb618934img8.jpg,Checks/check3/open-images-1696_20a4ebf0c0f76b05img6.jpg,Checks/check3/open-images-2447_128483a48e1552f4img6.jpg,Checks/check3/open-images-2994_9965cbf8aa20bda0img2.jpg,Checks/check3/open-images-1068_03d63613107970b3img6.jpg,Checks/check3/open-images-531_0dd4eb59d465a8beimg9.jpg,,,1,2022-06-16_03h17.22.335,annotation,2021.2.3,Win32,60.0024001,,
,,,,,,,,,,,,,,,,,0.4336,0.1352,1,0,0,image_4,0,14,14,43,1,1525,A white bird standing on top of a white chair.,M,0,7,MSR-VTT-videoTestVideo_video7113-shot1_1,Images/MSR-VTT-videoTestVideo_video7113-shot1_1/img58.jpg,Images/MSR-VTT-videoTestVideo_video7113-shot1_1/img72.jpg,Images/MSR-VTT-videoTestVideo_video7113-shot1_1/img76.jpg,Images/MSR-VTT-videoTestVideo_video7113-shot1_1/img81.jpg,Images/MSR-VTT-videoTestVideo_video7113-shot1_1/img89.jpg,Images/MSR-VTT-videoTestVideo_video7113-shot1_1/img93.jpg,Images/MSR-VTT-videoTestVideo_video7113-shot1_1/img96.jpg,Images/MSR-VTT-videoTestVideo_video7113-shot1_1/img102.jpg,Images/MSR-VTT-videoTestVideo_video7113-shot1_1/img116.jpg,Images/MSR-VTT-videoTestVideo_video7113-shot1_1/img128.jpg,137,26,0,2022-06-16_03h17.22.335,annotation,2021.2.3,Win32,60.0024001,,
,,,,,,,,,,,,,,,,,-0.2256,0.1512,1,0,0,image_1,0,15,15,30,1,1117,A pan filled with food on a stove top.,M,0,1,MSR-VTT-videoTestVideo_video7507-shot0_0,Images/MSR-VTT-videoTestVideo_video7507-shot0_0/img0.jpg,Images/MSR-VTT-videoTestVideo_video7507-shot0_0/img13.jpg,Images/MSR-VTT-videoTestVideo_video7507-shot0_0/img27.jpg,Images/MSR-VTT-videoTestVideo_video7507-shot0_0/img30.jpg,Images/MSR-VTT-videoTestVideo_video7507-shot0_0/img34.jpg,Images/MSR-VTT-videoTestVideo_video7507-shot0_0/img42.jpg,Images/MSR-VTT-videoTestVideo_video7507-shot0_0/img57.jpg,Images/MSR-VTT-videoTestVideo_video7507-shot0_0/img64.jpg,Images/MSR-VTT-videoTestVideo_video7507-shot0_0/img111.jpg,Images/MSR-VTT-videoTestVideo_video7507-shot0_0/img132.jpg,1373,26,0,2022-06-16_03h17.22.335,annotation,2021.2.3,Win32,60.0024001,,
,,,,,,,,,,,,,,,,,-0.5344,-0.1704,1,0,0,image_5,0,16,16,8,1,1793,a close up of a mixer in a kitchen.,M,0,7,MSR-VTT-videoTestVideo_video7911-shot1_0,Images/MSR-VTT-videoTestVideo_video7911-shot1_0/img0.jpg,Images/MSR-VTT-videoTestVideo_video7911-shot1_0/img6.jpg,Images/MSR-VTT-videoTestVideo_video7911-shot1_0/img11.jpg,Images/MSR-VTT-videoTestVideo_video7911-shot1_0/img13.jpg,Images/MSR-VTT-videoTestVideo_video7911-shot1_0/img14.jpg,Images/MSR-VTT-videoTestVideo_video7911-shot1_0/img15.jpg,Images/MSR-VTT-videoTestVideo_video7911-shot1_0/img21.jpg,Images/MSR-VTT-videoTestVideo_video7911-shot1_0/img42.jpg,Images/MSR-VTT-videoTestVideo_video7911-shot1_0/img121.jpg,Images/MSR-VTT-videoTestVideo_video7911-shot1_0/img124.jpg,1212,26,0,2022-06-16_03h17.22.335,annotation,2021.2.3,Win32,60.0024001,,
,,,,,,,,,,,,,,,,,0.496,-0.1752,1,0,0,image_9,0,17,17,6,1,1744,A group of people standing in front of a television.,M,0,6,MSR-VTT-videoTestVideo_video9469-shot0_3,Images/MSR-VTT-videoTestVideo_video9469-shot0_3/img101.jpg,Images/MSR-VTT-videoTestVideo_video9469-shot0_3/img104.jpg,Images/MSR-VTT-videoTestVideo_video9469-shot0_3/img106.jpg,Images/MSR-VTT-videoTestVideo_video9469-shot0_3/img109.jpg,Images/MSR-VTT-videoTestVideo_video9469-shot0_3/img111.jpg,Images/MSR-VTT-videoTestVideo_video9469-shot0_3/img115.jpg,Images/MSR-VTT-videoTestVideo_video9469-shot0_3/img120.jpg,Images/MSR-VTT-videoTestVideo_video9469-shot0_3/img121.jpg,Images/MSR-VTT-videoTestVideo_video9469-shot0_3/img122.jpg,Images/MSR-VTT-videoTestVideo_video9469-shot0_3/img125.jpg,2083,26,0,2022-06-16_03h17.22.335,annotation,2021.2.3,Win32,60.0024001,,
,,,,,,,,,,,,,,,,,-0.272,0.18,1,0,0,image_1,0,18,18,13,1,2070,A woman standing in front of a video game machine.,M,0,4,MSR-VTT-videoTestVideo_video8156-shot3_1,Images/MSR-VTT-videoTestVideo_video8156-shot3_1/img89.jpg,Images/MSR-VTT-videoTestVideo_video8156-shot3_1/img91.jpg,Images/MSR-VTT-videoTestVideo_video8156-shot3_1/img96.jpg,Images/MSR-VTT-videoTestVideo_video8156-shot3_1/img147.jpg,Images/MSR-VTT-videoTestVideo_video8156-shot3_1/img150.jpg,Images/MSR-VTT-videoTestVideo_video8156-shot3_1/img154.jpg,Images/MSR-VTT-videoTestVideo_video8156-shot3_1/img157.jpg,Images/MSR-VTT-videoTestVideo_video8156-shot3_1/img169.jpg,Images/MSR-VTT-videoTestVideo_video8156-shot3_1/img177.jpg,Images/MSR-VTT-videoTestVideo_video8156-shot3_1/img180.jpg,410,26,0,2022-06-16_03h17.22.335,annotation,2021.2.3,Win32,60.0024001,,
,,,,,,,,,,,,,,,,,-0.4704,-0.1464,1,0,0,image_5,0,19,19,36,1,500,The very tiniest sliver of the pink sleeve of the woman sitting on the sofa is visible on the left edge.,H,1,7,video-storytelling-videochristmas_5RR_sRzKODA-shot30_8,Images/video-storytelling-videochristmas_5RR_sRzKODA-shot30_8/img426.jpg,Images/video-storytelling-videochristmas_5RR_sRzKODA-shot30_8/img430.jpg,Images/video-storytelling-videochristmas_5RR_sRzKODA-shot30_8/img431.jpg,Images/video-storytelling-videochristmas_5RR_sRzKODA-shot30_8/img432.jpg,Images/video-storytelling-videochristmas_5RR_sRzKODA-shot30_8/img435.jpg,Images/video-storytelling-videochristmas_5RR_sRzKODA-shot30_8/img436.jpg,Images/video-storytelling-videochristmas_5RR_sRzKODA-shot30_8/img439.jpg,Images/video-storytelling-videochristmas_5RR_sRzKODA-shot30_8/img440.jpg,Images/video-storytelling-videochristmas_5RR_sRzKODA-shot30_8/img445.jpg,Images/video-storytelling-videochristmas_5RR_sRzKODA-shot30_8/img449.jpg,1637,26,0,2022-06-16_03h17.22.335,annotation,2021.2.3,Win32,60.0024001,,
,,,,,,,,,,,,,,,,,-0.4624,0.1672,1,0,0,image_0,0,20,20,17,1,1253,A picture of a woman holding a television on top of her head.,M,0,9,MSR-VTT-videoTestVideo_video8337-shot1_0,Images/MSR-VTT-videoTestVideo_video8337-shot1_0/img0.jpg,Images/MSR-VTT-videoTestVideo_video8337-shot1_0/img9.jpg,Images/MSR-VTT-videoTestVideo_video8337-shot1_0/img10.jpg,Images/MSR-VTT-videoTestVideo_video8337-shot1_0/img19.jpg,Images/MSR-VTT-videoTestVideo_video8337-shot1_0/img34.jpg,Images/MSR-VTT-videoTestVideo_video8337-shot1_0/img44.jpg,Images/MSR-VTT-videoTestVideo_video8337-shot1_0/img63.jpg,Images/MSR-VTT-videoTestVideo_video8337-shot1_0/img66.jpg,Images/MSR-VTT-videoTestVideo_video8337-shot1_0/img67.jpg,Images/MSR-VTT-videoTestVideo_video8337-shot1_0/img74.jpg,1140,26,0,2022-06-16_03h17.22.335,annotation,2021.2.3,Win32,60.0024001,,
,,,,,,,,,,,,,,,,,0.2176,0.1336,1,0,0,image_3,0,21,21,26,1,893,"The butterfly is hard to see, it's under the second word and is half cut off.",H,0,4,MSR-VTT-videoTestVideo_video9566-shot0_1,Images/MSR-VTT-videoTestVideo_video9566-shot0_1/img114.jpg,Images/MSR-VTT-videoTestVideo_video9566-shot0_1/img124.jpg,Images/MSR-VTT-videoTestVideo_video9566-shot0_1/img127.jpg,Images/MSR-VTT-videoTestVideo_video9566-shot0_1/img159.jpg,Images/MSR-VTT-videoTestVideo_video9566-shot0_1/img166.jpg,Images/MSR-VTT-videoTestVideo_video9566-shot0_1/img173.jpg,Images/MSR-VTT-videoTestVideo_video9566-shot0_1/img175.jpg,Images/MSR-VTT-videoTestVideo_video9566-shot0_1/img187.jpg,Images/MSR-VTT-videoTestVideo_video9566-shot0_1/img193.jpg,Images/MSR-VTT-videoTestVideo_video9566-shot0_1/img220.jpg,1018,26,0,2022-06-16_03h17.22.335,annotation,2021.2.3,Win32,60.0024001,,
,,,,,,,,,,,,,,,,,-0.44,-0.1512,1,0,0,image_5,0,22,22,4,1,1635,A close up of a person's hair on a cell phone.,M,0,3,MSR-VTT-videoTestVideo_video7807-shot2_0,Images/MSR-VTT-videoTestVideo_video7807-shot2_0/img0.jpg,Images/MSR-VTT-videoTestVideo_video7807-shot2_0/img29.jpg,Images/MSR-VTT-videoTestVideo_video7807-shot2_0/img67.jpg,Images/MSR-VTT-videoTestVideo_video7807-shot2_0/img88.jpg,Images/MSR-VTT-videoTestVideo_video7807-shot2_0/img109.jpg,Images/MSR-VTT-videoTestVideo_video7807-shot2_0/img118.jpg,Images/MSR-VTT-videoTestVideo_video7807-shot2_0/img138.jpg,Images/MSR-VTT-videoTestVideo_video7807-shot2_0/img151.jpg,Images/MSR-VTT-videoTestVideo_video7807-shot2_0/img199.jpg,Images/MSR-VTT-videoTestVideo_video7807-shot2_0/img209.jpg,425,26,0,2022-06-16_03h17.22.335,annotation,2021.2.3,Win32,60.0024001,,
,,,,,,,,,,,,,,,,,0.0128,0.1608,1,0,0,image_2,0,23,23,58,1,0,Pair of black gloves,H,,2,open-images-510_3a241cb30d6e5319,Checks/check1/open-images-225_1442c0d0ef23d58bimg3.jpg,Checks/check1/open-images-2759_3a42708fe77398b7img8.jpg,Checks/check1/open-images-510_3a241cb30d6e5319img2.jpg,Checks/check1/open-images-2209_02c98146fb93ff17img1.jpg,Checks/check1/open-images-1553_0f128317e56a9d2fimg9.jpg,Checks/check1/open-images-2666_044d7c6d11e6b493img8.jpg,Checks/check1/open-images-2880_159294646083f545img4.jpg,Checks/check1/open-images-609_2dc0baa993a2bd25img5.jpg,Checks/check1/open-images-1854_2b15616b4f1080e7img2.jpg,Checks/check1/open-images-1435_1b0ce31951048765img8.jpg,,,1,2022-06-16_03h17.22.335,annotation,2021.2.3,Win32,60.0024001,,
,,,,,,,,,,,,,,,,,-0.4656,0.1288,1,0,0,image_0,0,24,24,47,1,681,The candle has been blown out and he is looking towards the camera but his eyes are starting to squint. ,H,0,8,video-storytelling-videobirthday__amwPjAcoC8-shot21_0,Images/video-storytelling-videobirthday__amwPjAcoC8-shot21_0/img0.jpg,Images/video-storytelling-videobirthday__amwPjAcoC8-shot21_0/img6.jpg,Images/video-storytelling-videobirthday__amwPjAcoC8-shot21_0/img9.jpg,Images/video-storytelling-videobirthday__amwPjAcoC8-shot21_0/img16.jpg,Images/video-storytelling-videobirthday__amwPjAcoC8-shot21_0/img24.jpg,Images/video-storytelling-videobirthday__amwPjAcoC8-shot21_0/img41.jpg,Images/video-storytelling-videobirthday__amwPjAcoC8-shot21_0/img45.jpg,Images/video-storytelling-videobirthday__amwPjAcoC8-shot21_0/img54.jpg,Images/video-storytelling-videobirthday__amwPjAcoC8-shot21_0/img59.jpg,Images/video-storytelling-videobirthday__amwPjAcoC8-shot21_0/img66.jpg,543,26,0,2022-06-16_03h17.22.335,annotation,2021.2.3,Win32,60.0024001,,
,,,,,,,,,,,,,,,,,0.5168,0.1336,1,0,0,image_4,0,25,25,44,1,910,"Eyelids are lowered. She is facing the lower left corner, and her mouth is open in an ""o"" shape. In the lower left corner, she's holding something and you can see her blue fingernails.",H,0,2,MSR-VTT-videoTestVideo_video7984-shot1_4,Images/MSR-VTT-videoTestVideo_video7984-shot1_4/img346.jpg,Images/MSR-VTT-videoTestVideo_video7984-shot1_4/img355.jpg,Images/MSR-VTT-videoTestVideo_video7984-shot1_4/img380.jpg,Images/MSR-VTT-videoTestVideo_video7984-shot1_4/img403.jpg,Images/MSR-VTT-videoTestVideo_video7984-shot1_4/img423.jpg,Images/MSR-VTT-videoTestVideo_video7984-shot1_4/img438.jpg,Images/MSR-VTT-videoTestVideo_video7984-shot1_4/img446.jpg,Images/MSR-VTT-videoTestVideo_video7984-shot1_4/img450.jpg,Images/MSR-VTT-videoTestVideo_video7984-shot1_4/img454.jpg,Images/MSR-VTT-videoTestVideo_video7984-shot1_4/img466.jpg,1197,26,0,2022-06-16_03h17.22.335,annotation,2021.2.3,Win32,60.0024001,,
,,,,,,,,,,,,,,,,,-0.4496,0.1272,1,0,0,image_0,0,26,26,38,1,486,A woman carrying a white box is in the process of walking through a doorframe,H,0,0,video-storytelling-videobirthday_fwpYnUDbusw-shot18_0,Images/video-storytelling-videobirthday_fwpYnUDbusw-shot18_0/img0.jpg,Images/video-storytelling-videobirthday_fwpYnUDbusw-shot18_0/img2.jpg,Images/video-storytelling-videobirthday_fwpYnUDbusw-shot18_0/img10.jpg,Images/video-storytelling-videobirthday_fwpYnUDbusw-shot18_0/img20.jpg,Images/video-storytelling-videobirthday_fwpYnUDbusw-shot18_0/img29.jpg,Images/video-storytelling-videobirthday_fwpYnUDbusw-shot18_0/img37.jpg,Images/video-storytelling-videobirthday_fwpYnUDbusw-shot18_0/img42.jpg,Images/video-storytelling-videobirthday_fwpYnUDbusw-shot18_0/img46.jpg,Images/video-storytelling-videobirthday_fwpYnUDbusw-shot18_0/img53.jpg,Images/video-storytelling-videobirthday_fwpYnUDbusw-shot18_0/img57.jpg,1092,26,0,2022-06-16_03h17.22.335,annotation,2021.2.3,Win32,60.0024001,,
,,,,,,,,,,,,,,,,,-0.0192,0.1592,1,0,0,image_2,0,27,27,25,1,401,She's sitting behind him holding his shoulders. The woman in orange is not visible.,H,0,2,MSR-VTT-videoTestVideo_video8513-shot4_0,Images/MSR-VTT-videoTestVideo_video8513-shot4_0/img0.jpg,Images/MSR-VTT-videoTestVideo_video8513-shot4_0/img10.jpg,Images/MSR-VTT-videoTestVideo_video8513-shot4_0/img58.jpg,Images/MSR-VTT-videoTestVideo_video8513-shot4_0/img73.jpg,Images/MSR-VTT-videoTestVideo_video8513-shot4_0/img97.jpg,Images/MSR-VTT-videoTestVideo_video8513-shot4_0/img114.jpg,Images/MSR-VTT-videoTestVideo_video8513-shot4_0/img115.jpg,Images/MSR-VTT-videoTestVideo_video8513-shot4_0/img119.jpg,Images/MSR-VTT-videoTestVideo_video8513-shot4_0/img123.jpg,Images/MSR-VTT-videoTestVideo_video8513-shot4_0/img131.jpg,1660,26,0,2022-06-16_03h17.22.335,annotation,2021.2.3,Win32,60.0024001,,
,,,,,,,,,,,,,,,,,0.0224,0.1048,1,0,0,image_2,0,28,28,50,1,2056,A person is using a colorful cake to decorate a table.,M,0,4,MSR-VTT-videoTestVideo_video7016-shot1_2,Images/MSR-VTT-videoTestVideo_video7016-shot1_2/img224.jpg,Images/MSR-VTT-videoTestVideo_video7016-shot1_2/img229.jpg,Images/MSR-VTT-videoTestVideo_video7016-shot1_2/img250.jpg,Images/MSR-VTT-videoTestVideo_video7016-shot1_2/img261.jpg,Images/MSR-VTT-videoTestVideo_video7016-shot1_2/img267.jpg,Images/MSR-VTT-videoTestVideo_video7016-shot1_2/img282.jpg,Images/MSR-VTT-videoTestVideo_video7016-shot1_2/img350.jpg,Images/MSR-VTT-videoTestVideo_video7016-shot1_2/img365.jpg,Images/MSR-VTT-videoTestVideo_video7016-shot1_2/img369.jpg,Images/MSR-VTT-videoTestVideo_video7016-shot1_2/img376.jpg,1980,26,0,2022-06-16_03h17.22.335,annotation,2021.2.3,Win32,60.0024001,,
,,,,,,,,,,,,,,,,,0.2432,0.1448,1,0,0,image_3,0,29,29,3,1,393,"She is holding the box directly in front of her, she is looking up and her mouth is closed.",H,0,5,video-storytelling-videobirthday_fwpYnUDbusw-shot8_6,Images/video-storytelling-videobirthday_fwpYnUDbusw-shot8_6/img348.jpg,Images/video-storytelling-videobirthday_fwpYnUDbusw-shot8_6/img351.jpg,Images/video-storytelling-videobirthday_fwpYnUDbusw-shot8_6/img360.jpg,Images/video-storytelling-videobirthday_fwpYnUDbusw-shot8_6/img368.jpg,Images/video-storytelling-videobirthday_fwpYnUDbusw-shot8_6/img374.jpg,Images/video-storytelling-videobirthday_fwpYnUDbusw-shot8_6/img382.jpg,Images/video-storytelling-videobirthday_fwpYnUDbusw-shot8_6/img388.jpg,Images/video-storytelling-videobirthday_fwpYnUDbusw-shot8_6/img397.jpg,Images/video-storytelling-videobirthday_fwpYnUDbusw-shot8_6/img401.jpg,Images/video-storytelling-videobirthday_fwpYnUDbusw-shot8_6/img405.jpg,20,26,0,2022-06-16_03h17.22.335,annotation,2021.2.3,Win32,60.0024001,,
,,,,,,,,,,,,,,,,,0.272,0.156,1,0,0,image_3,0,30,30,46,1,531,The woman's head in green on the right can't be seen.  Her arm is seen at a 90 degree angle but no fingers are seen. ,H,0,3,MSR-VTT-videoTestVideo_video9082-shot1_1,Images/MSR-VTT-videoTestVideo_video9082-shot1_1/img38.jpg,Images/MSR-VTT-videoTestVideo_video9082-shot1_1/img42.jpg,Images/MSR-VTT-videoTestVideo_video9082-shot1_1/img43.jpg,Images/MSR-VTT-videoTestVideo_video9082-shot1_1/img47.jpg,Images/MSR-VTT-videoTestVideo_video9082-shot1_1/img54.jpg,Images/MSR-VTT-videoTestVideo_video9082-shot1_1/img58.jpg,Images/MSR-VTT-videoTestVideo_video9082-shot1_1/img61.jpg,Images/MSR-VTT-videoTestVideo_video9082-shot1_1/img63.jpg,Images/MSR-VTT-videoTestVideo_video9082-shot1_1/img67.jpg,Images/MSR-VTT-videoTestVideo_video9082-shot1_1/img70.jpg,1707,26,0,2022-06-16_03h17.22.335,annotation,2021.2.3,Win32,60.0024001,,
,,,,,,,,,,,,,,,,,0.32,-0.1816,1,0,0,image_8,0,31,31,45,1,1007,Only the arm and the knee of a woman with a striped shirt on the far right can be seen. ,H,1,5,video-storytelling-videocamping_1OzbiB1TIWI-shot12_22,Images/video-storytelling-videocamping_1OzbiB1TIWI-shot12_22/img1054.jpg,Images/video-storytelling-videocamping_1OzbiB1TIWI-shot12_22/img1056.jpg,Images/video-storytelling-videocamping_1OzbiB1TIWI-shot12_22/img1057.jpg,Images/video-storytelling-videocamping_1OzbiB1TIWI-shot12_22/img1059.jpg,Images/video-storytelling-videocamping_1OzbiB1TIWI-shot12_22/img1064.jpg,Images/video-storytelling-videocamping_1OzbiB1TIWI-shot12_22/img1068.jpg,Images/video-storytelling-videocamping_1OzbiB1TIWI-shot12_22/img1073.jpg,Images/video-storytelling-videocamping_1OzbiB1TIWI-shot12_22/img1077.jpg,Images/video-storytelling-videocamping_1OzbiB1TIWI-shot12_22/img1085.jpg,Images/video-storytelling-videocamping_1OzbiB1TIWI-shot12_22/img1092.jpg,1782,26,0,2022-06-16_03h17.22.335,annotation,2021.2.3,Win32,60.0024001,,
,,,,,,,,,,,,,,,,,-0.44,0.132,1,0,0,image_0,0,32,32,37,1,1595,A woman holding a bouquet of flowers in front of a window.,M,0,1,video-storytelling-videowedding_46xhFCXBMJs-shot62_0,Images/video-storytelling-videowedding_46xhFCXBMJs-shot62_0/img0.jpg,Images/video-storytelling-videowedding_46xhFCXBMJs-shot62_0/img26.jpg,Images/video-storytelling-videowedding_46xhFCXBMJs-shot62_0/img41.jpg,Images/video-storytelling-videowedding_46xhFCXBMJs-shot62_0/img50.jpg,Images/video-storytelling-videowedding_46xhFCXBMJs-shot62_0/img71.jpg,Images/video-storytelling-videowedding_46xhFCXBMJs-shot62_0/img76.jpg,Images/video-storytelling-videowedding_46xhFCXBMJs-shot62_0/img78.jpg,Images/video-storytelling-videowedding_46xhFCXBMJs-shot62_0/img79.jpg,Images/video-storytelling-videowedding_46xhFCXBMJs-shot62_0/img81.jpg,Images/video-storytelling-videowedding_46xhFCXBMJs-shot62_0/img85.jpg,223,26,0,2022-06-16_03h17.22.335,annotation,2021.2.3,Win32,60.0024001,,
,,,,,,,,,,,,,,,,,0.232,-0.1448,1,0,0,image_8,0,33,33,1,1,1158,a close up of a person holding a bowl of vegetables.,M,0,2,MSR-VTT-videoTestVideo_video7705-shot1_0,Images/MSR-VTT-videoTestVideo_video7705-shot1_0/img0.jpg,Images/MSR-VTT-videoTestVideo_video7705-shot1_0/img3.jpg,Images/MSR-VTT-videoTestVideo_video7705-shot1_0/img7.jpg,Images/MSR-VTT-videoTestVideo_video7705-shot1_0/img11.jpg,Images/MSR-VTT-videoTestVideo_video7705-shot1_0/img12.jpg,Images/MSR-VTT-videoTestVideo_video7705-shot1_0/img15.jpg,Images/MSR-VTT-videoTestVideo_video7705-shot1_0/img19.jpg,Images/MSR-VTT-videoTestVideo_video7705-shot1_0/img25.jpg,Images/MSR-VTT-videoTestVideo_video7705-shot1_0/img32.jpg,Images/MSR-VTT-videoTestVideo_video7705-shot1_0/img36.jpg,752,26,0,2022-06-16_03h17.22.335,annotation,2021.2.3,Win32,60.0024001,,
,,,,,,,,,,,,,,,,,0.3008,0.1224,1,0,0,image_3,0,34,34,5,1,1301,A close up of a woman with a baby on her lap.,M,0,3,MSR-VTT-videoTestVideo_video8847-shot4_1,Images/MSR-VTT-videoTestVideo_video8847-shot4_1/img27.jpg,Images/MSR-VTT-videoTestVideo_video8847-shot4_1/img28.jpg,Images/MSR-VTT-videoTestVideo_video8847-shot4_1/img30.jpg,Images/MSR-VTT-videoTestVideo_video8847-shot4_1/img31.jpg,Images/MSR-VTT-videoTestVideo_video8847-shot4_1/img32.jpg,Images/MSR-VTT-videoTestVideo_video8847-shot4_1/img35.jpg,Images/MSR-VTT-videoTestVideo_video8847-shot4_1/img38.jpg,Images/MSR-VTT-videoTestVideo_video8847-shot4_1/img42.jpg,Images/MSR-VTT-videoTestVideo_video8847-shot4_1/img45.jpg,Images/MSR-VTT-videoTestVideo_video8847-shot4_1/img48.jpg,1231,26,0,2022-06-16_03h17.22.335,annotation,2021.2.3,Win32,60.0024001,,
,,,,,,,,,,,,,,,,,0.1968,0.1448,1,0,0,image_3,0,35,35,32,1,1826,A man standing next to an airplane in a garage.,M,0,3,MSR-VTT-videoTestVideo_video9508-shot3_0,Images/MSR-VTT-videoTestVideo_video9508-shot3_0/img0.jpg,Images/MSR-VTT-videoTestVideo_video9508-shot3_0/img3.jpg,Images/MSR-VTT-videoTestVideo_video9508-shot3_0/img8.jpg,Images/MSR-VTT-videoTestVideo_video9508-shot3_0/img16.jpg,Images/MSR-VTT-videoTestVideo_video9508-shot3_0/img27.jpg,Images/MSR-VTT-videoTestVideo_video9508-shot3_0/img35.jpg,Images/MSR-VTT-videoTestVideo_video9508-shot3_0/img62.jpg,Images/MSR-VTT-videoTestVideo_video9508-shot3_0/img92.jpg,Images/MSR-VTT-videoTestVideo_video9508-shot3_0/img108.jpg,Images/MSR-VTT-videoTestVideo_video9508-shot3_0/img124.jpg,143,26,0,2022-06-16_03h17.22.335,annotation,2021.2.3,Win32,60.0024001,,
,,,,,,,,,,,,,,,,,-0.256,0.14,1,0,0,image_1,0,36,36,39,1,411,Somebody is jumping up in front of a singer.   You can barely see the person's mouth and his left eye is partially blurry and covered. ,H,1,1,MSR-VTT-videoTestVideo_video9600-shot3_0,Images/MSR-VTT-videoTestVideo_video9600-shot3_0/img0.jpg,Images/MSR-VTT-videoTestVideo_video9600-shot3_0/img5.jpg,Images/MSR-VTT-videoTestVideo_video9600-shot3_0/img6.jpg,Images/MSR-VTT-videoTestVideo_video9600-shot3_0/img7.jpg,Images/MSR-VTT-videoTestVideo_video9600-shot3_0/img10.jpg,Images/MSR-VTT-videoTestVideo_video9600-shot3_0/img11.jpg,Images/MSR-VTT-videoTestVideo_video9600-shot3_0/img12.jpg,Images/MSR-VTT-videoTestVideo_video9600-shot3_0/img14.jpg,Images/MSR-VTT-videoTestVideo_video9600-shot3_0/img19.jpg,Images/MSR-VTT-videoTestVideo_video9600-shot3_0/img21.jpg,1459,26,0,2022-06-16_03h17.22.335,annotation,2021.2.3,Win32,60.0024001,,
,,,,,,,,,,,,,,,,,0.0128,-0.1144,1,0,0,image_7,0,37,37,33,1,154,Almost the entire knife is visible with only the top not seen on the far left.  The top edge of the blade is parallel to the top of the picture. ,H,0,5,MSR-VTT-videoTestVideo_video9749-shot1_3,Images/MSR-VTT-videoTestVideo_video9749-shot1_3/img210.jpg,Images/MSR-VTT-videoTestVideo_video9749-shot1_3/img215.jpg,Images/MSR-VTT-videoTestVideo_video9749-shot1_3/img224.jpg,Images/MSR-VTT-videoTestVideo_video9749-shot1_3/img233.jpg,Images/MSR-VTT-videoTestVideo_video9749-shot1_3/img242.jpg,Images/MSR-VTT-videoTestVideo_video9749-shot1_3/img246.jpg,Images/MSR-VTT-videoTestVideo_video9749-shot1_3/img251.jpg,Images/MSR-VTT-videoTestVideo_video9749-shot1_3/img263.jpg,Images/MSR-VTT-videoTestVideo_video9749-shot1_3/img269.jpg,Images/MSR-VTT-videoTestVideo_video9749-shot1_3/img282.jpg,717,26,0,2022-06-16_03h17.22.335,annotation,2021.2.3,Win32,60.0024001,,
,,,,,,,,,,,,,,,,,0.5408,-0.1464,1,0,0,image_9,0,38,38,9,1,2086,A man riding a bike inside of a closet.,M,0,4,MSR-VTT-videoTestVideo_video7737-shot0_0,Images/MSR-VTT-videoTestVideo_video7737-shot0_0/img6.jpg,Images/MSR-VTT-videoTestVideo_video7737-shot0_0/img14.jpg,Images/MSR-VTT-videoTestVideo_video7737-shot0_0/img24.jpg,Images/MSR-VTT-videoTestVideo_video7737-shot0_0/img30.jpg,Images/MSR-VTT-videoTestVideo_video7737-shot0_0/img37.jpg,Images/MSR-VTT-videoTestVideo_video7737-shot0_0/img51.jpg,Images/MSR-VTT-videoTestVideo_video7737-shot0_0/img61.jpg,Images/MSR-VTT-videoTestVideo_video7737-shot0_0/img63.jpg,Images/MSR-VTT-videoTestVideo_video7737-shot0_0/img67.jpg,Images/MSR-VTT-videoTestVideo_video7737-shot0_0/img68.jpg,598,26,0,2022-06-16_03h17.22.335,annotation,2021.2.3,Win32,60.0024001,,
,,,,,,,,,,,,,,,,,-0.4544,0.1272,1,0,0,image_0,0,39,39,51,1,1752,A man holding a bowl of food in his hand.,M,0,6,MSR-VTT-videoTestVideo_video8606-shot1_0,Images/MSR-VTT-videoTestVideo_video8606-shot1_0/img0.jpg,Images/MSR-VTT-videoTestVideo_video8606-shot1_0/img4.jpg,Images/MSR-VTT-videoTestVideo_video8606-shot1_0/img12.jpg,Images/MSR-VTT-videoTestVideo_video8606-shot1_0/img29.jpg,Images/MSR-VTT-videoTestVideo_video8606-shot1_0/img34.jpg,Images/MSR-VTT-videoTestVideo_video8606-shot1_0/img42.jpg,Images/MSR-VTT-videoTestVideo_video8606-shot1_0/img52.jpg,Images/MSR-VTT-videoTestVideo_video8606-shot1_0/img54.jpg,Images/MSR-VTT-videoTestVideo_video8606-shot1_0/img62.jpg,Images/MSR-VTT-videoTestVideo_video8606-shot1_0/img68.jpg,1334,26,0,2022-06-16_03h17.22.335,annotation,2021.2.3,Win32,60.0024001,,
,,,,,,,,,,,,,,,,,-0.0464,-0.1352,1,0,0,image_7,0,40,40,41,1,851,The guy is punching down. The hand is super blurry and positioned at the bottom left of the picture. It is not cut off by the picture but is super blurry ,H,0,3,MSR-VTT-videoTestVideo_video7686-shot3_0,Images/MSR-VTT-videoTestVideo_video7686-shot3_0/img0.jpg,Images/MSR-VTT-videoTestVideo_video7686-shot3_0/img1.jpg,Images/MSR-VTT-videoTestVideo_video7686-shot3_0/img2.jpg,Images/MSR-VTT-videoTestVideo_video7686-shot3_0/img4.jpg,Images/MSR-VTT-videoTestVideo_video7686-shot3_0/img5.jpg,Images/MSR-VTT-videoTestVideo_video7686-shot3_0/img7.jpg,Images/MSR-VTT-videoTestVideo_video7686-shot3_0/img9.jpg,Images/MSR-VTT-videoTestVideo_video7686-shot3_0/img12.jpg,Images/MSR-VTT-videoTestVideo_video7686-shot3_0/img13.jpg,Images/MSR-VTT-videoTestVideo_video7686-shot3_0/img15.jpg,1825,26,0,2022-06-16_03h17.22.335,annotation,2021.2.3,Win32,60.0024001,,
,,,,,,,,,,,,,,,,,-0.232,-0.1336,1,0,0,image_6,0,41,41,12,1,648,There is a small diamond shape in the center of a collage of pictures.  You can just see a man's neck and chin. No mouth or nose is seen. ,H,0,6,MSR-VTT-videoTestVideo_video8020-shot1_0,Images/MSR-VTT-videoTestVideo_video8020-shot1_0/img0.jpg,Images/MSR-VTT-videoTestVideo_video8020-shot1_0/img4.jpg,Images/MSR-VTT-videoTestVideo_video8020-shot1_0/img5.jpg,Images/MSR-VTT-videoTestVideo_video8020-shot1_0/img6.jpg,Images/MSR-VTT-videoTestVideo_video8020-shot1_0/img7.jpg,Images/MSR-VTT-videoTestVideo_video8020-shot1_0/img9.jpg,Images/MSR-VTT-videoTestVideo_video8020-shot1_0/img61.jpg,Images/MSR-VTT-videoTestVideo_video8020-shot1_0/img62.jpg,Images/MSR-VTT-videoTestVideo_video8020-shot1_0/img63.jpg,Images/MSR-VTT-videoTestVideo_video8020-shot1_0/img64.jpg,2081,26,0,2022-06-16_03h17.22.335,annotation,2021.2.3,Win32,60.0024001,,
,,,,,,,,,,,,,,,,,-0.4896,0.1576,1,0,0,image_0,0,42,42,31,1,1424,A close up of a man with a pair of scissors on his head.,M,1,3,MSR-VTT-videoTestVideo_video9311-shot1_3,Images/MSR-VTT-videoTestVideo_video9311-shot1_3/img214.jpg,Images/MSR-VTT-videoTestVideo_video9311-shot1_3/img219.jpg,Images/MSR-VTT-videoTestVideo_video9311-shot1_3/img225.jpg,Images/MSR-VTT-videoTestVideo_video9311-shot1_3/img228.jpg,Images/MSR-VTT-videoTestVideo_video9311-shot1_3/img230.jpg,Images/MSR-VTT-videoTestVideo_video9311-shot1_3/img232.jpg,Images/MSR-VTT-videoTestVideo_video9311-shot1_3/img242.jpg,Images/MSR-VTT-videoTestVideo_video9311-shot1_3/img245.jpg,Images/MSR-VTT-videoTestVideo_video9311-shot1_3/img250.jpg,Images/MSR-VTT-videoTestVideo_video9311-shot1_3/img253.jpg,510,26,0,2022-06-16_03h17.22.335,annotation,2021.2.3,Win32,60.0024001,,
,,,,,,,,,,,,,,,,,0.4784,-0.1528,1,0,0,image_9,0,43,43,14,1,1638,A photo of a skateboarder in front of a building.,M,0,3,MSR-VTT-videoTestVideo_video7780-shot0_1,Images/MSR-VTT-videoTestVideo_video7780-shot0_1/img16.jpg,Images/MSR-VTT-videoTestVideo_video7780-shot0_1/img18.jpg,Images/MSR-VTT-videoTestVideo_video7780-shot0_1/img22.jpg,Images/MSR-VTT-videoTestVideo_video7780-shot0_1/img23.jpg,Images/MSR-VTT-videoTestVideo_video7780-shot0_1/img26.jpg,Images/MSR-VTT-videoTestVideo_video7780-shot0_1/img30.jpg,Images/MSR-VTT-videoTestVideo_video7780-shot0_1/img36.jpg,Images/MSR-VTT-videoTestVideo_video7780-shot0_1/img39.jpg,Images/MSR-VTT-videoTestVideo_video7780-shot0_1/img41.jpg,Images/MSR-VTT-videoTestVideo_video7780-shot0_1/img43.jpg,1201,26,0,2022-06-16_03h17.22.335,annotation,2021.2.3,Win32,60.0024001,,
,,,,,,,,,,,,,,,,,0.5488,-0.1432,1,0,0,image_9,0,44,44,20,1,1304,A group of people playing basketball on a basketball court.,M,0,2,MSR-VTT-videoTestVideo_video7710-shot0_0,Images/MSR-VTT-videoTestVideo_video7710-shot0_0/img0.jpg,Images/MSR-VTT-videoTestVideo_video7710-shot0_0/img2.jpg,Images/MSR-VTT-videoTestVideo_video7710-shot0_0/img3.jpg,Images/MSR-VTT-videoTestVideo_video7710-shot0_0/img4.jpg,Images/MSR-VTT-videoTestVideo_video7710-shot0_0/img6.jpg,Images/MSR-VTT-videoTestVideo_video7710-shot0_0/img12.jpg,Images/MSR-VTT-videoTestVideo_video7710-shot0_0/img16.jpg,Images/MSR-VTT-videoTestVideo_video7710-shot0_0/img20.jpg,Images/MSR-VTT-videoTestVideo_video7710-shot0_0/img46.jpg,Images/MSR-VTT-videoTestVideo_video7710-shot0_0/img57.jpg,1923,26,0,2022-06-16_03h17.22.335,annotation,2021.2.3,Win32,60.0024001,,
,,,,,,,,,,,,,,,,,-0.496,0.148,1,0,0,image_0,0,45,45,34,1,1418,A woman standing in front of a crowd of people.,M,0,7,video-storytelling-videowedding_Bp8t824h5NE-shot45_3,Images/video-storytelling-videowedding_Bp8t824h5NE-shot45_3/img600.jpg,Images/video-storytelling-videowedding_Bp8t824h5NE-shot45_3/img631.jpg,Images/video-storytelling-videowedding_Bp8t824h5NE-shot45_3/img646.jpg,Images/video-storytelling-videowedding_Bp8t824h5NE-shot45_3/img659.jpg,Images/video-storytelling-videowedding_Bp8t824h5NE-shot45_3/img670.jpg,Images/video-storytelling-videowedding_Bp8t824h5NE-shot45_3/img689.jpg,Images/video-storytelling-videowedding_Bp8t824h5NE-shot45_3/img714.jpg,Images/video-storytelling-videowedding_Bp8t824h5NE-shot45_3/img737.jpg,Images/video-storytelling-videowedding_Bp8t824h5NE-shot45_3/img765.jpg,Images/video-storytelling-videowedding_Bp8t824h5NE-shot45_3/img785.jpg,1720,26,0,2022-06-16_03h17.22.335,annotation,2021.2.3,Win32,60.0024001,,
,,,,,,,,,,,,,,,,,0.2576,0.1464,1,0,0,image_3,0,46,46,55,1,1142,A man that is sitting in a dark room.,M,0,2,MSR-VTT-videoTestVideo_video7055-shot6_0,Images/MSR-VTT-videoTestVideo_video7055-shot6_0/img0.jpg,Images/MSR-VTT-videoTestVideo_video7055-shot6_0/img7.jpg,Images/MSR-VTT-videoTestVideo_video7055-shot6_0/img22.jpg,Images/MSR-VTT-videoTestVideo_video7055-shot6_0/img41.jpg,Images/MSR-VTT-videoTestVideo_video7055-shot6_0/img54.jpg,Images/MSR-VTT-videoTestVideo_video7055-shot6_0/img55.jpg,Images/MSR-VTT-videoTestVideo_video7055-shot6_0/img61.jpg,Images/MSR-VTT-videoTestVideo_video7055-shot6_0/img66.jpg,Images/MSR-VTT-videoTestVideo_video7055-shot6_0/img70.jpg,Images/MSR-VTT-videoTestVideo_video7055-shot6_0/img74.jpg,1850,26,0,2022-06-16_03h17.22.335,annotation,2021.2.3,Win32,60.0024001,,
,,,,,,,,,,,,,,,,,-0.4416,0.1448,1,0,0,image_0,0,47,47,27,1,1509,A group of kids are standing next to each other.,M,0,4,video-storytelling-videochristmas_5RR_sRzKODA-shot20_4,Images/video-storytelling-videochristmas_5RR_sRzKODA-shot20_4/img97.jpg,Images/video-storytelling-videochristmas_5RR_sRzKODA-shot20_4/img101.jpg,Images/video-storytelling-videochristmas_5RR_sRzKODA-shot20_4/img102.jpg,Images/video-storytelling-videochristmas_5RR_sRzKODA-shot20_4/img103.jpg,Images/video-storytelling-videochristmas_5RR_sRzKODA-shot20_4/img104.jpg,Images/video-storytelling-videochristmas_5RR_sRzKODA-shot20_4/img106.jpg,Images/video-storytelling-videochristmas_5RR_sRzKODA-shot20_4/img110.jpg,Images/video-storytelling-videochristmas_5RR_sRzKODA-shot20_4/img114.jpg,Images/video-storytelling-videochristmas_5RR_sRzKODA-shot20_4/img116.jpg,Images/video-storytelling-videochristmas_5RR_sRzKODA-shot20_4/img119.jpg,1664,26,0,2022-06-16_03h17.22.335,annotation,2021.2.3,Win32,60.0024001,,
,,,,,,,,,,,,,,,,,-0.4928,-0.1576,1,0,0,image_5,0,48,48,29,1,269,"The two people wearing glasses look at each other, while the person without glasses looks toward them and the girl with glasses on her head doesn't hold a cup.",H,1,5,video-storytelling-videocamping_dBXYM3dQTSo-shot83_3,Images/video-storytelling-videocamping_dBXYM3dQTSo-shot83_3/img202.jpg,Images/video-storytelling-videocamping_dBXYM3dQTSo-shot83_3/img225.jpg,Images/video-storytelling-videocamping_dBXYM3dQTSo-shot83_3/img237.jpg,Images/video-storytelling-videocamping_dBXYM3dQTSo-shot83_3/img242.jpg,Images/video-storytelling-videocamping_dBXYM3dQTSo-shot83_3/img254.jpg,Images/video-storytelling-videocamping_dBXYM3dQTSo-shot83_3/img273.jpg,Images/video-storytelling-videocamping_dBXYM3dQTSo-shot83_3/img311.jpg,Images/video-storytelling-videocamping_dBXYM3dQTSo-shot83_3/img322.jpg,Images/video-storytelling-videocamping_dBXYM3dQTSo-shot83_3/img326.jpg,Images/video-storytelling-videocamping_dBXYM3dQTSo-shot83_3/img351.jpg,1309,26,0,2022-06-16_03h17.22.335,annotation,2021.2.3,Win32,60.0024001,,
,,,,,,,,,,,,,,,,,0.0064,0.1352,1,0,0,image_2,0,49,49,10,1,1321,A group of people standing next to each other.,M,1,5,video-storytelling-videocamping_1OzbiB1TIWI-shot45_0,Images/video-storytelling-videocamping_1OzbiB1TIWI-shot45_0/img0.jpg,Images/video-storytelling-videocamping_1OzbiB1TIWI-shot45_0/img1.jpg,Images/video-storytelling-videocamping_1OzbiB1TIWI-shot45_0/img4.jpg,Images/video-storytelling-videocamping_1OzbiB1TIWI-shot45_0/img10.jpg,Images/video-storytelling-videocamping_1OzbiB1TIWI-shot45_0/img15.jpg,Images/video-storytelling-videocamping_1OzbiB1TIWI-shot45_0/img22.jpg,Images/video-storytelling-videocamping_1OzbiB1TIWI-shot45_0/img25.jpg,Images/video-storytelling-videocamping_1OzbiB1TIWI-shot45_0/img27.jpg,Images/video-storytelling-videocamping_1OzbiB1TIWI-shot45_0/img28.jpg,Images/video-storytelling-videocamping_1OzbiB1TIWI-shot45_0/img30.jpg,1745,26,0,2022-06-16_03h17.22.335,annotation,2021.2.3,Win32,60.0024001,,
,,,,,,,,,,,,,,,,,-0.512,0.1752,1,0,0,image_0,0,50,50,11,1,210,Her mouth and nose are showing.,H,0,0,MSR-VTT-videoTestVideo_video7420-shot1_1,Images/MSR-VTT-videoTestVideo_video7420-shot1_1/img67.jpg,Images/MSR-VTT-videoTestVideo_video7420-shot1_1/img71.jpg,Images/MSR-VTT-videoTestVideo_video7420-shot1_1/img75.jpg,Images/MSR-VTT-videoTestVideo_video7420-shot1_1/img77.jpg,Images/MSR-VTT-videoTestVideo_video7420-shot1_1/img84.jpg,Images/MSR-VTT-videoTestVideo_video7420-shot1_1/img90.jpg,Images/MSR-VTT-videoTestVideo_video7420-shot1_1/img99.jpg,Images/MSR-VTT-videoTestVideo_video7420-shot1_1/img114.jpg,Images/MSR-VTT-videoTestVideo_video7420-shot1_1/img121.jpg,Images/MSR-VTT-videoTestVideo_video7420-shot1_1/img127.jpg,434,26,0,2022-06-16_03h17.22.335,annotation,2021.2.3,Win32,60.0024001,,
,,,,,,,,,,,,,,,,,0.2864,-0.1288,1,0,0,image_8,0,51,51,49,1,1646,A close up of a man with a bandanna on his head.,M,1,8,MSR-VTT-videoTestVideo_video9947-shot2_0,Images/MSR-VTT-videoTestVideo_video9947-shot2_0/img0.jpg,Images/MSR-VTT-videoTestVideo_video9947-shot2_0/img11.jpg,Images/MSR-VTT-videoTestVideo_video9947-shot2_0/img22.jpg,Images/MSR-VTT-videoTestVideo_video9947-shot2_0/img55.jpg,Images/MSR-VTT-videoTestVideo_video9947-shot2_0/img78.jpg,Images/MSR-VTT-videoTestVideo_video9947-shot2_0/img87.jpg,Images/MSR-VTT-videoTestVideo_video9947-shot2_0/img98.jpg,Images/MSR-VTT-videoTestVideo_video9947-shot2_0/img123.jpg,Images/MSR-VTT-videoTestVideo_video9947-shot2_0/img125.jpg,Images/MSR-VTT-videoTestVideo_video9947-shot2_0/img148.jpg,1838,26,0,2022-06-16_03h17.22.335,annotation,2021.2.3,Win32,60.0024001,,
,,,,,,,,,,,,,,,,,-0.4688,0.1272,1,0,0,image_0,0,52,52,40,1,1645,A woman holding a piece of paper over her head.,M,0,2,video-storytelling-videocamping_dBXYM3dQTSo-shot75_2,Images/video-storytelling-videocamping_dBXYM3dQTSo-shot75_2/img352.jpg,Images/video-storytelling-videocamping_dBXYM3dQTSo-shot75_2/img380.jpg,Images/video-storytelling-videocamping_dBXYM3dQTSo-shot75_2/img388.jpg,Images/video-storytelling-videocamping_dBXYM3dQTSo-shot75_2/img404.jpg,Images/video-storytelling-videocamping_dBXYM3dQTSo-shot75_2/img410.jpg,Images/video-storytelling-videocamping_dBXYM3dQTSo-shot75_2/img427.jpg,Images/video-storytelling-videocamping_dBXYM3dQTSo-shot75_2/img441.jpg,Images/video-storytelling-videocamping_dBXYM3dQTSo-shot75_2/img481.jpg,Images/video-storytelling-videocamping_dBXYM3dQTSo-shot75_2/img503.jpg,Images/video-storytelling-videocamping_dBXYM3dQTSo-shot75_2/img531.jpg,580,26,0,2022-06-16_03h17.22.335,annotation,2021.2.3,Win32,60.0024001,,
,,,,,,,,,,,,,,,,,-0.0032,-0.1704,1,0,0,image_7,0,53,53,19,1,497,The man is holding a bottle of yellow liquid with the back leg of the chair behind it roughly running through the middle below it,H,1,1,MSR-VTT-videoTestVideo_video8191-shot1_0,Images/MSR-VTT-videoTestVideo_video8191-shot1_0/img0.jpg,Images/MSR-VTT-videoTestVideo_video8191-shot1_0/img3.jpg,Images/MSR-VTT-videoTestVideo_video8191-shot1_0/img16.jpg,Images/MSR-VTT-videoTestVideo_video8191-shot1_0/img20.jpg,Images/MSR-VTT-videoTestVideo_video8191-shot1_0/img28.jpg,Images/MSR-VTT-videoTestVideo_video8191-shot1_0/img39.jpg,Images/MSR-VTT-videoTestVideo_video8191-shot1_0/img51.jpg,Images/MSR-VTT-videoTestVideo_video8191-shot1_0/img57.jpg,Images/MSR-VTT-videoTestVideo_video8191-shot1_0/img60.jpg,Images/MSR-VTT-videoTestVideo_video8191-shot1_0/img63.jpg,1937,26,0,2022-06-16_03h17.22.335,annotation,2021.2.3,Win32,60.0024001,,
,,,,,,,,,,,,,,,,,-0.0112,0.1416,1,0,0,image_2,0,54,54,52,1,983,The white plate is covering the left half of the pan on the stove.  The hand is not over the dish but is below and to the left of it. ,H,1,2,MSR-VTT-videoTestVideo_video7507-shot0_0,Images/MSR-VTT-videoTestVideo_video7507-shot0_0/img0.jpg,Images/MSR-VTT-videoTestVideo_video7507-shot0_0/img13.jpg,Images/MSR-VTT-videoTestVideo_video7507-shot0_0/img27.jpg,Images/MSR-VTT-videoTestVideo_video7507-shot0_0/img30.jpg,Images/MSR-VTT-videoTestVideo_video7507-shot0_0/img34.jpg,Images/MSR-VTT-videoTestVideo_video7507-shot0_0/img42.jpg,Images/MSR-VTT-videoTestVideo_video7507-shot0_0/img57.jpg,Images/MSR-VTT-videoTestVideo_video7507-shot0_0/img64.jpg,Images/MSR-VTT-videoTestVideo_video7507-shot0_0/img111.jpg,Images/MSR-VTT-videoTestVideo_video7507-shot0_0/img132.jpg,1972,26,0,2022-06-16_03h17.22.335,annotation,2021.2.3,Win32,60.0024001,,
,,,,,,,,,,,,,,,,,-0.208,-0.1496,1,0,0,image_6,0,55,55,56,1,1074,An image of a crowd of people watching a basketball game.,M,0,7,MSR-VTT-videoTestVideo_video8013-shot1_0,Images/MSR-VTT-videoTestVideo_video8013-shot1_0/img0.jpg,Images/MSR-VTT-videoTestVideo_video8013-shot1_0/img1.jpg,Images/MSR-VTT-videoTestVideo_video8013-shot1_0/img10.jpg,Images/MSR-VTT-videoTestVideo_video8013-shot1_0/img12.jpg,Images/MSR-VTT-videoTestVideo_video8013-shot1_0/img18.jpg,Images/MSR-VTT-videoTestVideo_video8013-shot1_0/img20.jpg,Images/MSR-VTT-videoTestVideo_video8013-shot1_0/img24.jpg,Images/MSR-VTT-videoTestVideo_video8013-shot1_0/img25.jpg,Images/MSR-VTT-videoTestVideo_video8013-shot1_0/img30.jpg,Images/MSR-VTT-videoTestVideo_video8013-shot1_0/img31.jpg,392,26,0,2022-06-16_03h17.22.335,annotation,2021.2.3,Win32,60.0024001,,
,,,,,,,,,,,,,,,,,0.2688,-0.1416,1,0,0,image_8,0,56,56,7,1,287,You can't see the pink handle on the white pan. You can still see most of the white pan.  The yellow bowl is tipped toward the camera. ,H,0,6,MSR-VTT-videoTestVideo_video7561-shot1_0,Images/MSR-VTT-videoTestVideo_video7561-shot1_0/img0.jpg,Images/MSR-VTT-videoTestVideo_video7561-shot1_0/img5.jpg,Images/MSR-VTT-videoTestVideo_video7561-shot1_0/img13.jpg,Images/MSR-VTT-videoTestVideo_video7561-shot1_0/img33.jpg,Images/MSR-VTT-videoTestVideo_video7561-shot1_0/img38.jpg,Images/MSR-VTT-videoTestVideo_video7561-shot1_0/img46.jpg,Images/MSR-VTT-videoTestVideo_video7561-shot1_0/img53.jpg,Images/MSR-VTT-videoTestVideo_video7561-shot1_0/img62.jpg,Images/MSR-VTT-videoTestVideo_video7561-shot1_0/img75.jpg,Images/MSR-VTT-videoTestVideo_video7561-shot1_0/img81.jpg,429,26,0,2022-06-16_03h17.22.335,annotation,2021.2.3,Win32,60.0024001,,
,,,,,,,,,,,,,,,,,-0.0432,0.1304,1,0,0,image_2,0,57,57,21,1,1848,A bunch of cakes with different types of frosting.,M,0,2,MSR-VTT-videoTestVideo_video7566-shot2_1,Images/MSR-VTT-videoTestVideo_video7566-shot2_1/img87.jpg,Images/MSR-VTT-videoTestVideo_video7566-shot2_1/img96.jpg,Images/MSR-VTT-videoTestVideo_video7566-shot2_1/img104.jpg,Images/MSR-VTT-videoTestVideo_video7566-shot2_1/img106.jpg,Images/MSR-VTT-videoTestVideo_video7566-shot2_1/img109.jpg,Images/MSR-VTT-videoTestVideo_video7566-shot2_1/img112.jpg,Images/MSR-VTT-videoTestVideo_video7566-shot2_1/img116.jpg,Images/MSR-VTT-videoTestVideo_video7566-shot2_1/img118.jpg,Images/MSR-VTT-videoTestVideo_video7566-shot2_1/img121.jpg,Images/MSR-VTT-videoTestVideo_video7566-shot2_1/img126.jpg,1654,26,0,2022-06-16_03h17.22.335,annotation,2021.2.3,Win32,60.0024001,,
,,,,,,,,,,,,,,,,,-0.4848,0.1816,1,0,0,image_0,0,58,58,22,1,1015,"The white part of the horse harness looks like half a sky cloud at the top right, not at the corner.",H,0,2,MSR-VTT-videoTestVideo_video9311-shot1_3,Images/MSR-VTT-videoTestVideo_video9311-shot1_3/img214.jpg,Images/MSR-VTT-videoTestVideo_video9311-shot1_3/img219.jpg,Images/MSR-VTT-videoTestVideo_video9311-shot1_3/img225.jpg,Images/MSR-VTT-videoTestVideo_video9311-shot1_3/img228.jpg,Images/MSR-VTT-videoTestVideo_video9311-shot1_3/img230.jpg,Images/MSR-VTT-videoTestVideo_video9311-shot1_3/img232.jpg,Images/MSR-VTT-videoTestVideo_video9311-shot1_3/img242.jpg,Images/MSR-VTT-videoTestVideo_video9311-shot1_3/img245.jpg,Images/MSR-VTT-videoTestVideo_video9311-shot1_3/img250.jpg,Images/MSR-VTT-videoTestVideo_video9311-shot1_3/img253.jpg,1855,26,0,2022-06-16_03h17.22.335,annotation,2021.2.3,Win32,60.0024001,,
,,,,,,,,,,,,,,,,,0.2752,-0.1752,1,0,0,image_8,0,59,59,24,1,1702,A person holding a skateboard in front of a building.,M,0,2,MSR-VTT-videoTestVideo_video7780-shot3_4,Images/MSR-VTT-videoTestVideo_video7780-shot3_4/img75.jpg,Images/MSR-VTT-videoTestVideo_video7780-shot3_4/img76.jpg,Images/MSR-VTT-videoTestVideo_video7780-shot3_4/img77.jpg,Images/MSR-VTT-videoTestVideo_video7780-shot3_4/img78.jpg,Images/MSR-VTT-videoTestVideo_video7780-shot3_4/img79.jpg,Images/MSR-VTT-videoTestVideo_video7780-shot3_4/img80.jpg,Images/MSR-VTT-videoTestVideo_video7780-shot3_4/img82.jpg,Images/MSR-VTT-videoTestVideo_video7780-shot3_4/img83.jpg,Images/MSR-VTT-videoTestVideo_video7780-shot3_4/img86.jpg,Images/MSR-VTT-videoTestVideo_video7780-shot3_4/img87.jpg,487,26,0,2022-06-16_03h17.22.335,annotation,2021.2.3,Win32,60.0024001,,
,,,,,,,,,,,,,,,,,0.5168,0.1272,1,0,0,image_4,0,60,60,16,1,173,A girl is starting to remove her hand from the bag and she is looking towards her arm. ,H,0,9,MSR-VTT-videoTestVideo_video8868-shot1_1,Images/MSR-VTT-videoTestVideo_video8868-shot1_1/img136.jpg,Images/MSR-VTT-videoTestVideo_video8868-shot1_1/img141.jpg,Images/MSR-VTT-videoTestVideo_video8868-shot1_1/img157.jpg,Images/MSR-VTT-videoTestVideo_video8868-shot1_1/img178.jpg,Images/MSR-VTT-videoTestVideo_video8868-shot1_1/img191.jpg,Images/MSR-VTT-videoTestVideo_video8868-shot1_1/img195.jpg,Images/MSR-VTT-videoTestVideo_video8868-shot1_1/img197.jpg,Images/MSR-VTT-videoTestVideo_video8868-shot1_1/img201.jpg,Images/MSR-VTT-videoTestVideo_video8868-shot1_1/img205.jpg,Images/MSR-VTT-videoTestVideo_video8868-shot1_1/img216.jpg,1971,26,0,2022-06-16_03h17.22.335,annotation,2021.2.3,Win32,60.0024001,,
,,,,,,,,,,,,,,,,,-0.4544,0.1384,1,0,0,image_0,0,61,61,0,1,1986,A woman holding a cell phone in her hand.,M,0,5,MSR-VTT-videoTestVideo_video8947-shot0_0,Images/MSR-VTT-videoTestVideo_video8947-shot0_0/img0.jpg,Images/MSR-VTT-videoTestVideo_video8947-shot0_0/img7.jpg,Images/MSR-VTT-videoTestVideo_video8947-shot0_0/img52.jpg,Images/MSR-VTT-videoTestVideo_video8947-shot0_0/img83.jpg,Images/MSR-VTT-videoTestVideo_video8947-shot0_0/img89.jpg,Images/MSR-VTT-videoTestVideo_video8947-shot0_0/img94.jpg,Images/MSR-VTT-videoTestVideo_video8947-shot0_0/img97.jpg,Images/MSR-VTT-videoTestVideo_video8947-shot0_0/img100.jpg,Images/MSR-VTT-videoTestVideo_video8947-shot0_0/img103.jpg,Images/MSR-VTT-videoTestVideo_video8947-shot0_0/img108.jpg,12,26,0,2022-06-16_03h17.22.335,annotation,2021.2.3,Win32,60.0024001,,
,,,,,,,,,,,,,,,,,-0.4944,0.1304,1,0,0,image_0,0,62,62,54,1,1234,A woman standing in front of a fire hydrant.,M,1,1,video-storytelling-videocamping_dBXYM3dQTSo-shot55_3,Images/video-storytelling-videocamping_dBXYM3dQTSo-shot55_3/img268.jpg,Images/video-storytelling-videocamping_dBXYM3dQTSo-shot55_3/img270.jpg,Images/video-storytelling-videocamping_dBXYM3dQTSo-shot55_3/img275.jpg,Images/video-storytelling-videocamping_dBXYM3dQTSo-shot55_3/img278.jpg,Images/video-storytelling-videocamping_dBXYM3dQTSo-shot55_3/img281.jpg,Images/video-storytelling-videocamping_dBXYM3dQTSo-shot55_3/img286.jpg,Images/video-storytelling-videocamping_dBXYM3dQTSo-shot55_3/img293.jpg,Images/video-storytelling-videocamping_dBXYM3dQTSo-shot55_3/img301.jpg,Images/video-storytelling-videocamping_dBXYM3dQTSo-shot55_3/img308.jpg,Images/video-storytelling-videocamping_dBXYM3dQTSo-shot55_3/img316.jpg,1105,26,0,2022-06-16_03h17.22.335,annotation,2021.2.3,Win32,60.0024001,,
,,,,,,,,,,,,,,,,,,,,,,,,,,,,,,,,,,,,,,,,,,,,,,,2022-06-16_03h17.22.335,annotation,2021.2.3,Win32,60.0024001,space,32.623
