mturk,key_resp_2.keys,key_resp_2.rt,key_resp_3.keys,key_resp_3.rt,mouse_2.x,mouse_2.y,mouse_2.leftButton,mouse_2.midButton,mouse_2.rightButton,mouse_2.clicked_name,key_resp_5.keys,key_resp_5.rt,key_resp.keys,key_resp.rt,key_resp_6.keys,key_resp_6.rt,mouse.x,mouse.y,mouse.leftButton,mouse.midButton,mouse.rightButton,mouse.clicked_name,trials.thisRepN,trials.thisTrialN,trials.thisN,trials.thisIndex,trials.ran,N,caption,class_caption,model_guessed,target_idx,image_set,img1,img2,img3,img4,img5,img6,img7,img8,img9,img10,Q_id,block,is_check,date,expName,psychopyVersion,OS,frameRate,key_resp_7.keys,key_resp_7.rt
9323789,space,26.0893,space,10.4297,0.267361111,0.092361106,1,0,0,ex4,space,9.784,space,8.7178,space,1.1038,0.427083333,0.074305561,1,0,0,image_4,0,0,0,46,1,542,the elbow of the woman in purple in the left bottom corner is slightly cut off,H,0,4,MSR-VTT-videoTestVideo_video8525-shot1_1,Images/MSR-VTT-videoTestVideo_video8525-shot1_1/img35.jpg,Images/MSR-VTT-videoTestVideo_video8525-shot1_1/img37.jpg,Images/MSR-VTT-videoTestVideo_video8525-shot1_1/img40.jpg,Images/MSR-VTT-videoTestVideo_video8525-shot1_1/img42.jpg,Images/MSR-VTT-videoTestVideo_video8525-shot1_1/img47.jpg,Images/MSR-VTT-videoTestVideo_video8525-shot1_1/img49.jpg,Images/MSR-VTT-videoTestVideo_video8525-shot1_1/img50.jpg,Images/MSR-VTT-videoTestVideo_video8525-shot1_1/img52.jpg,Images/MSR-VTT-videoTestVideo_video8525-shot1_1/img55.jpg,Images/MSR-VTT-videoTestVideo_video8525-shot1_1/img56.jpg,466,1,0,2022-06-14_18h06.25.074,annotation,2021.2.3,Linux x86_64,90.14693951,,
,,,,,,,,,,,,,,,,,0.27638891,0.098611116,1,0,0,image_3,0,1,1,3,1,191,Only one hand is visible inside the bowl,H,0,3,MSR-VTT-videoTestVideo_video7165-shot1_0,Images/MSR-VTT-videoTestVideo_video7165-shot1_0/img0.jpg,Images/MSR-VTT-videoTestVideo_video7165-shot1_0/img10.jpg,Images/MSR-VTT-videoTestVideo_video7165-shot1_0/img12.jpg,Images/MSR-VTT-videoTestVideo_video7165-shot1_0/img45.jpg,Images/MSR-VTT-videoTestVideo_video7165-shot1_0/img80.jpg,Images/MSR-VTT-videoTestVideo_video7165-shot1_0/img88.jpg,Images/MSR-VTT-videoTestVideo_video7165-shot1_0/img92.jpg,Images/MSR-VTT-videoTestVideo_video7165-shot1_0/img100.jpg,Images/MSR-VTT-videoTestVideo_video7165-shot1_0/img149.jpg,Images/MSR-VTT-videoTestVideo_video7165-shot1_0/img475.jpg,960,1,0,2022-06-14_18h06.25.074,annotation,2021.2.3,Linux x86_64,90.14693951,,
,,,,,,,,,,,,,,,,,-0.248611079,0.122222212,1,0,0,image_1,0,2,2,4,1,1639,A man holding an umbrella over a woman.,M,0,9,video-storytelling-videowedding_de8dLXvgV-I-shot13_1,Images/video-storytelling-videowedding_de8dLXvgV-I-shot13_1/img30.jpg,Images/video-storytelling-videowedding_de8dLXvgV-I-shot13_1/img34.jpg,Images/video-storytelling-videowedding_de8dLXvgV-I-shot13_1/img40.jpg,Images/video-storytelling-videowedding_de8dLXvgV-I-shot13_1/img43.jpg,Images/video-storytelling-videowedding_de8dLXvgV-I-shot13_1/img48.jpg,Images/video-storytelling-videowedding_de8dLXvgV-I-shot13_1/img58.jpg,Images/video-storytelling-videowedding_de8dLXvgV-I-shot13_1/img62.jpg,Images/video-storytelling-videowedding_de8dLXvgV-I-shot13_1/img64.jpg,Images/video-storytelling-videowedding_de8dLXvgV-I-shot13_1/img65.jpg,Images/video-storytelling-videowedding_de8dLXvgV-I-shot13_1/img68.jpg,649,1,0,2022-06-14_18h06.25.074,annotation,2021.2.3,Linux x86_64,90.14693951,,
,,,,,,,,,,,,,,,,,0.479861153,0.109027783,1,0,0,image_4,0,3,3,38,1,1088,A woman standing in front of a television monitor.,M,0,5,MSR-VTT-videoTestVideo_video8454-shot1_1,Images/MSR-VTT-videoTestVideo_video8454-shot1_1/img86.jpg,Images/MSR-VTT-videoTestVideo_video8454-shot1_1/img87.jpg,Images/MSR-VTT-videoTestVideo_video8454-shot1_1/img88.jpg,Images/MSR-VTT-videoTestVideo_video8454-shot1_1/img89.jpg,Images/MSR-VTT-videoTestVideo_video8454-shot1_1/img147.jpg,Images/MSR-VTT-videoTestVideo_video8454-shot1_1/img148.jpg,Images/MSR-VTT-videoTestVideo_video8454-shot1_1/img152.jpg,Images/MSR-VTT-videoTestVideo_video8454-shot1_1/img156.jpg,Images/MSR-VTT-videoTestVideo_video8454-shot1_1/img159.jpg,Images/MSR-VTT-videoTestVideo_video8454-shot1_1/img172.jpg,2027,1,0,2022-06-14_18h06.25.074,annotation,2021.2.3,Linux x86_64,90.14693951,,
,,,,,,,,,,,,,,,,,-0.488888873,-0.127777788,1,0,0,image_5,0,4,4,29,1,931,The dog mascot is sticking its hands out straight towards the sides of its body. ,H,0,5,video-storytelling-videobirthday__amwPjAcoC8-shot75_0,Images/video-storytelling-videobirthday__amwPjAcoC8-shot75_0/img0.jpg,Images/video-storytelling-videobirthday__amwPjAcoC8-shot75_0/img2.jpg,Images/video-storytelling-videobirthday__amwPjAcoC8-shot75_0/img4.jpg,Images/video-storytelling-videobirthday__amwPjAcoC8-shot75_0/img8.jpg,Images/video-storytelling-videobirthday__amwPjAcoC8-shot75_0/img22.jpg,Images/video-storytelling-videobirthday__amwPjAcoC8-shot75_0/img38.jpg,Images/video-storytelling-videobirthday__amwPjAcoC8-shot75_0/img44.jpg,Images/video-storytelling-videobirthday__amwPjAcoC8-shot75_0/img52.jpg,Images/video-storytelling-videobirthday__amwPjAcoC8-shot75_0/img56.jpg,Images/video-storytelling-videobirthday__amwPjAcoC8-shot75_0/img59.jpg,961,1,0,2022-06-14_18h06.25.074,annotation,2021.2.3,Linux x86_64,90.14693951,,
,,,,,,,,,,,,,,,,,0.290277799,-0.104861101,1,0,0,image_8,0,5,5,40,1,1046,A group of people standing next to each other.,M,0,9,MSR-VTT-videoTestVideo_video7047-shot1_0,Images/MSR-VTT-videoTestVideo_video7047-shot1_0/img0.jpg,Images/MSR-VTT-videoTestVideo_video7047-shot1_0/img1.jpg,Images/MSR-VTT-videoTestVideo_video7047-shot1_0/img27.jpg,Images/MSR-VTT-videoTestVideo_video7047-shot1_0/img32.jpg,Images/MSR-VTT-videoTestVideo_video7047-shot1_0/img33.jpg,Images/MSR-VTT-videoTestVideo_video7047-shot1_0/img39.jpg,Images/MSR-VTT-videoTestVideo_video7047-shot1_0/img82.jpg,Images/MSR-VTT-videoTestVideo_video7047-shot1_0/img112.jpg,Images/MSR-VTT-videoTestVideo_video7047-shot1_0/img113.jpg,Images/MSR-VTT-videoTestVideo_video7047-shot1_0/img123.jpg,1546,1,0,2022-06-14_18h06.25.074,annotation,2021.2.3,Linux x86_64,90.14693951,,
,,,,,,,,,,,,,,,,,-0.506944444,-0.149305556,1,0,0,image_5,0,6,6,20,1,1374,A group of people sitting in front of a red bus.,M,0,0,MSR-VTT-videoTestVideo_video9668-shot1_1,Images/MSR-VTT-videoTestVideo_video9668-shot1_1/img45.jpg,Images/MSR-VTT-videoTestVideo_video9668-shot1_1/img47.jpg,Images/MSR-VTT-videoTestVideo_video9668-shot1_1/img53.jpg,Images/MSR-VTT-videoTestVideo_video9668-shot1_1/img55.jpg,Images/MSR-VTT-videoTestVideo_video9668-shot1_1/img60.jpg,Images/MSR-VTT-videoTestVideo_video9668-shot1_1/img65.jpg,Images/MSR-VTT-videoTestVideo_video9668-shot1_1/img67.jpg,Images/MSR-VTT-videoTestVideo_video9668-shot1_1/img75.jpg,Images/MSR-VTT-videoTestVideo_video9668-shot1_1/img84.jpg,Images/MSR-VTT-videoTestVideo_video9668-shot1_1/img93.jpg,858,1,0,2022-06-14_18h06.25.074,annotation,2021.2.3,Linux x86_64,90.14693951,,
,,,,,,,,,,,,,,,,,0.438888868,0.138888889,1,0,0,image_4,0,7,7,32,1,1116,A man in a suit talking on a cell phone.,M,0,4,MSR-VTT-videoTestVideo_video9623-shot1_1,Images/MSR-VTT-videoTestVideo_video9623-shot1_1/img39.jpg,Images/MSR-VTT-videoTestVideo_video9623-shot1_1/img41.jpg,Images/MSR-VTT-videoTestVideo_video9623-shot1_1/img43.jpg,Images/MSR-VTT-videoTestVideo_video9623-shot1_1/img45.jpg,Images/MSR-VTT-videoTestVideo_video9623-shot1_1/img120.jpg,Images/MSR-VTT-videoTestVideo_video9623-shot1_1/img138.jpg,Images/MSR-VTT-videoTestVideo_video9623-shot1_1/img141.jpg,Images/MSR-VTT-videoTestVideo_video9623-shot1_1/img144.jpg,Images/MSR-VTT-videoTestVideo_video9623-shot1_1/img146.jpg,Images/MSR-VTT-videoTestVideo_video9623-shot1_1/img148.jpg,82,1,0,2022-06-14_18h06.25.074,annotation,2021.2.3,Linux x86_64,90.14693951,,
,,,,,,,,,,,,,,,,,-0.25,0.147222228,1,0,0,image_1,0,8,8,62,1,4,A penguin holding a piece of paper with text on it. ,H,,1,open-images-2521_074d6af730ed17a6,Checks/check5/open-images-509_4d8bd994cb8c6eaeimg0.jpg,Checks/check5/open-images-2521_074d6af730ed17a6img1.jpg,Checks/check5/open-images-1365_a00a5fde334ae45aimg4.jpg,Checks/check5/open-images-1602_44092afdeab39e73img6.jpg,Checks/check5/open-images-1032_059f3cdfb85ee0ceimg3.jpg,Checks/check5/open-images-727_25b77fff36adba66img2.jpg,Checks/check5/open-images-2208_0fb92b9978d98575img2.jpg,Checks/check5/open-images-1305_05769e6abb16fdc8img9.jpg,Checks/check5/open-images-2676_052dbf7b4899430bimg1.jpg,Checks/check5/open-images-2569_1e81d79bb796a2dbimg7.jpg,,,1,2022-06-14_18h06.25.074,annotation,2021.2.3,Linux x86_64,90.14693951,,
,,,,,,,,,,,,,,,,,0.050694466,-0.142361111,1,0,0,image_7,0,9,9,43,1,904,The two wrestlers are shaking hands. ,H,0,7,MSR-VTT-videoTestVideo_video9375-shot1_4,Images/MSR-VTT-videoTestVideo_video9375-shot1_4/img384.jpg,Images/MSR-VTT-videoTestVideo_video9375-shot1_4/img397.jpg,Images/MSR-VTT-videoTestVideo_video9375-shot1_4/img473.jpg,Images/MSR-VTT-videoTestVideo_video9375-shot1_4/img489.jpg,Images/MSR-VTT-videoTestVideo_video9375-shot1_4/img506.jpg,Images/MSR-VTT-videoTestVideo_video9375-shot1_4/img522.jpg,Images/MSR-VTT-videoTestVideo_video9375-shot1_4/img540.jpg,Images/MSR-VTT-videoTestVideo_video9375-shot1_4/img555.jpg,Images/MSR-VTT-videoTestVideo_video9375-shot1_4/img572.jpg,Images/MSR-VTT-videoTestVideo_video9375-shot1_4/img620.jpg,1857,1,0,2022-06-14_18h06.25.074,annotation,2021.2.3,Linux x86_64,90.14693951,,
,,,,,,,,,,,,,,,,,-0.5,0.146527767,1,0,0,image_0,0,10,10,52,1,1589,A group of people standing next to each other.,M,0,7,video-storytelling-videocamping_1OzbiB1TIWI-shot14_2,Images/video-storytelling-videocamping_1OzbiB1TIWI-shot14_2/img519.jpg,Images/video-storytelling-videocamping_1OzbiB1TIWI-shot14_2/img525.jpg,Images/video-storytelling-videocamping_1OzbiB1TIWI-shot14_2/img531.jpg,Images/video-storytelling-videocamping_1OzbiB1TIWI-shot14_2/img537.jpg,Images/video-storytelling-videocamping_1OzbiB1TIWI-shot14_2/img560.jpg,Images/video-storytelling-videocamping_1OzbiB1TIWI-shot14_2/img567.jpg,Images/video-storytelling-videocamping_1OzbiB1TIWI-shot14_2/img584.jpg,Images/video-storytelling-videocamping_1OzbiB1TIWI-shot14_2/img642.jpg,Images/video-storytelling-videocamping_1OzbiB1TIWI-shot14_2/img668.jpg,Images/video-storytelling-videocamping_1OzbiB1TIWI-shot14_2/img698.jpg,238,1,0,2022-06-14_18h06.25.074,annotation,2021.2.3,Linux x86_64,90.14693951,,
,,,,,,,,,,,,,,,,,0.472916709,0.113194439,1,0,0,image_4,0,11,11,57,1,1520,A dog standing in a room in front of a door.,M,0,4,MSR-VTT-videoTestVideo_video8052-shot1_1,Images/MSR-VTT-videoTestVideo_video8052-shot1_1/img140.jpg,Images/MSR-VTT-videoTestVideo_video8052-shot1_1/img150.jpg,Images/MSR-VTT-videoTestVideo_video8052-shot1_1/img161.jpg,Images/MSR-VTT-videoTestVideo_video8052-shot1_1/img171.jpg,Images/MSR-VTT-videoTestVideo_video8052-shot1_1/img178.jpg,Images/MSR-VTT-videoTestVideo_video8052-shot1_1/img187.jpg,Images/MSR-VTT-videoTestVideo_video8052-shot1_1/img200.jpg,Images/MSR-VTT-videoTestVideo_video8052-shot1_1/img205.jpg,Images/MSR-VTT-videoTestVideo_video8052-shot1_1/img218.jpg,Images/MSR-VTT-videoTestVideo_video8052-shot1_1/img243.jpg,608,1,0,2022-06-14_18h06.25.074,annotation,2021.2.3,Linux x86_64,90.14693951,,
,,,,,,,,,,,,,,,,,0.004166709,-0.097222222,1,0,0,image_7,0,12,12,49,1,1058,A girl is smiling while holding her cell phone.,M,0,6,video-storytelling-videocamping_dBXYM3dQTSo-shot74_0,Images/video-storytelling-videocamping_dBXYM3dQTSo-shot74_0/img0.jpg,Images/video-storytelling-videocamping_dBXYM3dQTSo-shot74_0/img3.jpg,Images/video-storytelling-videocamping_dBXYM3dQTSo-shot74_0/img5.jpg,Images/video-storytelling-videocamping_dBXYM3dQTSo-shot74_0/img6.jpg,Images/video-storytelling-videocamping_dBXYM3dQTSo-shot74_0/img7.jpg,Images/video-storytelling-videocamping_dBXYM3dQTSo-shot74_0/img8.jpg,Images/video-storytelling-videocamping_dBXYM3dQTSo-shot74_0/img9.jpg,Images/video-storytelling-videocamping_dBXYM3dQTSo-shot74_0/img10.jpg,Images/video-storytelling-videocamping_dBXYM3dQTSo-shot74_0/img12.jpg,Images/video-storytelling-videocamping_dBXYM3dQTSo-shot74_0/img15.jpg,1583,1,0,2022-06-14_18h06.25.074,annotation,2021.2.3,Linux x86_64,90.14693951,,
,,,,,,,,,,,,,,,,,0.219444487,-0.127777788,1,0,0,image_8,0,13,13,56,1,1539,A woman walking down the street carrying a pink purse.,M,0,6,MSR-VTT-videoTestVideo_video7522-shot4_0,Images/MSR-VTT-videoTestVideo_video7522-shot4_0/img0.jpg,Images/MSR-VTT-videoTestVideo_video7522-shot4_0/img5.jpg,Images/MSR-VTT-videoTestVideo_video7522-shot4_0/img10.jpg,Images/MSR-VTT-videoTestVideo_video7522-shot4_0/img11.jpg,Images/MSR-VTT-videoTestVideo_video7522-shot4_0/img15.jpg,Images/MSR-VTT-videoTestVideo_video7522-shot4_0/img16.jpg,Images/MSR-VTT-videoTestVideo_video7522-shot4_0/img18.jpg,Images/MSR-VTT-videoTestVideo_video7522-shot4_0/img21.jpg,Images/MSR-VTT-videoTestVideo_video7522-shot4_0/img25.jpg,Images/MSR-VTT-videoTestVideo_video7522-shot4_0/img33.jpg,2039,1,0,2022-06-14_18h06.25.074,annotation,2021.2.3,Linux x86_64,90.14693951,,
,,,,,,,,,,,,,,,,,-0.016666677,0.147916661,1,0,0,image_2,0,14,14,61,1,3,A grey elephant with golden leaves on it. ,H,,2,open-images-1745_0ed62fe71809b2f5,Checks/check4/open-images-2609_3f72daeb23764ecfimg6.jpg,Checks/check4/open-images-1928_60679e2899870e08img1.jpg,Checks/check4/open-images-1745_0ed62fe71809b2f5img2.jpg,Checks/check4/open-images-1811_9ae6351c7f7565edimg0.jpg,Checks/check4/open-images-1721_6f04da11945ea492img3.jpg,Checks/check4/open-images-1907_5f9be3e4ea5e22c7img2.jpg,Checks/check4/open-images-580_0ddffb9c25141999img1.jpg,Checks/check4/open-images-2924_0645dcbcf998fed9img3.jpg,Checks/check4/open-images-869_856ecbcb5faf76e3img8.jpg,Checks/check4/open-images-250_02039517e63a91fbimg1.jpg,,,1,2022-06-14_18h06.25.074,annotation,2021.2.3,Linux x86_64,90.14693951,,
,,,,,,,,,,,,,,,,,0.227777799,0.120138884,1,0,0,image_3,0,15,15,44,1,630,There is a boy in orange at the bottom left of the image.  You can see his right arm and most of his body clearly but his left arm is off the image.  The person with the blue backpack is not see at all. ,H,0,3,video-storytelling-videobirthday__amwPjAcoC8-shot63_2,Images/video-storytelling-videobirthday__amwPjAcoC8-shot63_2/img58.jpg,Images/video-storytelling-videobirthday__amwPjAcoC8-shot63_2/img60.jpg,Images/video-storytelling-videobirthday__amwPjAcoC8-shot63_2/img62.jpg,Images/video-storytelling-videobirthday__amwPjAcoC8-shot63_2/img64.jpg,Images/video-storytelling-videobirthday__amwPjAcoC8-shot63_2/img72.jpg,Images/video-storytelling-videobirthday__amwPjAcoC8-shot63_2/img76.jpg,Images/video-storytelling-videobirthday__amwPjAcoC8-shot63_2/img80.jpg,Images/video-storytelling-videobirthday__amwPjAcoC8-shot63_2/img83.jpg,Images/video-storytelling-videobirthday__amwPjAcoC8-shot63_2/img87.jpg,Images/video-storytelling-videobirthday__amwPjAcoC8-shot63_2/img91.jpg,2075,1,0,2022-06-14_18h06.25.074,annotation,2021.2.3,Linux x86_64,90.14693951,,
,,,,,,,,,,,,,,,,,0.027777778,-0.115277767,1,0,0,image_7,0,16,16,50,1,1125,A group of people standing next to each other.,M,1,6,video-storytelling-videocamping_1OzbiB1TIWI-shot12_22,Images/video-storytelling-videocamping_1OzbiB1TIWI-shot12_22/img1054.jpg,Images/video-storytelling-videocamping_1OzbiB1TIWI-shot12_22/img1056.jpg,Images/video-storytelling-videocamping_1OzbiB1TIWI-shot12_22/img1057.jpg,Images/video-storytelling-videocamping_1OzbiB1TIWI-shot12_22/img1059.jpg,Images/video-storytelling-videocamping_1OzbiB1TIWI-shot12_22/img1064.jpg,Images/video-storytelling-videocamping_1OzbiB1TIWI-shot12_22/img1068.jpg,Images/video-storytelling-videocamping_1OzbiB1TIWI-shot12_22/img1073.jpg,Images/video-storytelling-videocamping_1OzbiB1TIWI-shot12_22/img1077.jpg,Images/video-storytelling-videocamping_1OzbiB1TIWI-shot12_22/img1085.jpg,Images/video-storytelling-videocamping_1OzbiB1TIWI-shot12_22/img1092.jpg,792,1,0,2022-06-14_18h06.25.074,annotation,2021.2.3,Linux x86_64,90.14693951,,
,,,,,,,,,,,,,,,,,0.213194423,0.121527778,1,0,0,image_3,0,17,17,27,1,1268,A person holding a cardboard box on top of a floor.,M,1,2,MSR-VTT-videoTestVideo_video7198-shot1_0,Images/MSR-VTT-videoTestVideo_video7198-shot1_0/img2.jpg,Images/MSR-VTT-videoTestVideo_video7198-shot1_0/img5.jpg,Images/MSR-VTT-videoTestVideo_video7198-shot1_0/img11.jpg,Images/MSR-VTT-videoTestVideo_video7198-shot1_0/img13.jpg,Images/MSR-VTT-videoTestVideo_video7198-shot1_0/img17.jpg,Images/MSR-VTT-videoTestVideo_video7198-shot1_0/img24.jpg,Images/MSR-VTT-videoTestVideo_video7198-shot1_0/img34.jpg,Images/MSR-VTT-videoTestVideo_video7198-shot1_0/img43.jpg,Images/MSR-VTT-videoTestVideo_video7198-shot1_0/img47.jpg,Images/MSR-VTT-videoTestVideo_video7198-shot1_0/img52.jpg,400,1,0,2022-06-14_18h06.25.074,annotation,2021.2.3,Linux x86_64,90.14693951,,
,,,,,,,,,,,,,,,,,0.064583355,0.116666661,1,0,0,image_2,0,18,18,14,1,907,"In total, eight dark figures are seen at lower right, but they are blurry.",H,1,2,MSR-VTT-videoTestVideo_video7564-shot1_0,Images/MSR-VTT-videoTestVideo_video7564-shot1_0/img0.jpg,Images/MSR-VTT-videoTestVideo_video7564-shot1_0/img7.jpg,Images/MSR-VTT-videoTestVideo_video7564-shot1_0/img10.jpg,Images/MSR-VTT-videoTestVideo_video7564-shot1_0/img15.jpg,Images/MSR-VTT-videoTestVideo_video7564-shot1_0/img17.jpg,Images/MSR-VTT-videoTestVideo_video7564-shot1_0/img20.jpg,Images/MSR-VTT-videoTestVideo_video7564-shot1_0/img25.jpg,Images/MSR-VTT-videoTestVideo_video7564-shot1_0/img27.jpg,Images/MSR-VTT-videoTestVideo_video7564-shot1_0/img36.jpg,Images/MSR-VTT-videoTestVideo_video7564-shot1_0/img42.jpg,518,1,0,2022-06-14_18h06.25.074,annotation,2021.2.3,Linux x86_64,90.14693951,,
,,,,,,,,,,,,,,,,,0.010416667,-0.160416656,1,0,0,image_7,0,19,19,55,1,508,"The left hand is pressed against the object. The middle and ring finger are together, with some space between the middle and pointer and the ring and pinkie fingers.",H,0,7,video-storytelling-videochristmas_5RR_sRzKODA-shot20_8,Images/video-storytelling-videochristmas_5RR_sRzKODA-shot20_8/img357.jpg,Images/video-storytelling-videochristmas_5RR_sRzKODA-shot20_8/img365.jpg,Images/video-storytelling-videochristmas_5RR_sRzKODA-shot20_8/img375.jpg,Images/video-storytelling-videochristmas_5RR_sRzKODA-shot20_8/img404.jpg,Images/video-storytelling-videochristmas_5RR_sRzKODA-shot20_8/img421.jpg,Images/video-storytelling-videochristmas_5RR_sRzKODA-shot20_8/img435.jpg,Images/video-storytelling-videochristmas_5RR_sRzKODA-shot20_8/img453.jpg,Images/video-storytelling-videochristmas_5RR_sRzKODA-shot20_8/img456.jpg,Images/video-storytelling-videochristmas_5RR_sRzKODA-shot20_8/img458.jpg,Images/video-storytelling-videochristmas_5RR_sRzKODA-shot20_8/img460.jpg,264,1,0,2022-06-14_18h06.25.074,annotation,2021.2.3,Linux x86_64,90.14693951,,
,,,,,,,,,,,,,,,,,-0.057638857,0.169444429,1,0,0,image_2,0,20,20,0,1,1701,A woman petting a cat in a room.,M,0,4,MSR-VTT-videoTestVideo_video8965-shot1_0,Images/MSR-VTT-videoTestVideo_video8965-shot1_0/img0.jpg,Images/MSR-VTT-videoTestVideo_video8965-shot1_0/img5.jpg,Images/MSR-VTT-videoTestVideo_video8965-shot1_0/img31.jpg,Images/MSR-VTT-videoTestVideo_video8965-shot1_0/img80.jpg,Images/MSR-VTT-videoTestVideo_video8965-shot1_0/img242.jpg,Images/MSR-VTT-videoTestVideo_video8965-shot1_0/img250.jpg,Images/MSR-VTT-videoTestVideo_video8965-shot1_0/img287.jpg,Images/MSR-VTT-videoTestVideo_video8965-shot1_0/img318.jpg,Images/MSR-VTT-videoTestVideo_video8965-shot1_0/img402.jpg,Images/MSR-VTT-videoTestVideo_video8965-shot1_0/img473.jpg,795,1,0,2022-06-14_18h06.25.074,annotation,2021.2.3,Linux x86_64,90.14693951,,
,,,,,,,,,,,,,,,,,-0.481249995,-0.127083355,1,0,0,image_5,0,21,21,35,1,263,The ball in the air is positioned so you can't see any words or graphics on the ball.,H,0,5,MSR-VTT-videoTestVideo_video8588-shot1_2,Images/MSR-VTT-videoTestVideo_video8588-shot1_2/img204.jpg,Images/MSR-VTT-videoTestVideo_video8588-shot1_2/img217.jpg,Images/MSR-VTT-videoTestVideo_video8588-shot1_2/img221.jpg,Images/MSR-VTT-videoTestVideo_video8588-shot1_2/img225.jpg,Images/MSR-VTT-videoTestVideo_video8588-shot1_2/img230.jpg,Images/MSR-VTT-videoTestVideo_video8588-shot1_2/img235.jpg,Images/MSR-VTT-videoTestVideo_video8588-shot1_2/img242.jpg,Images/MSR-VTT-videoTestVideo_video8588-shot1_2/img248.jpg,Images/MSR-VTT-videoTestVideo_video8588-shot1_2/img252.jpg,Images/MSR-VTT-videoTestVideo_video8588-shot1_2/img267.jpg,154,1,0,2022-06-14_18h06.25.074,annotation,2021.2.3,Linux x86_64,90.14693951,,
,,,,,,,,,,,,,,,,,0.463194423,-0.125,1,0,0,image_9,0,22,22,37,1,616,Meat browning in the pan being stirred with a utensil,H,0,9,YouCook-video0050-shot1_0,Images/YouCook-video0050-shot1_0/img0.jpg,Images/YouCook-video0050-shot1_0/img599.jpg,Images/YouCook-video0050-shot1_0/img601.jpg,Images/YouCook-video0050-shot1_0/img603.jpg,Images/YouCook-video0050-shot1_0/img604.jpg,Images/YouCook-video0050-shot1_0/img605.jpg,Images/YouCook-video0050-shot1_0/img607.jpg,Images/YouCook-video0050-shot1_0/img673.jpg,Images/YouCook-video0050-shot1_0/img774.jpg,Images/YouCook-video0050-shot1_0/img1906.jpg,259,1,0,2022-06-14_18h06.25.074,annotation,2021.2.3,Linux x86_64,90.14693951,,
,,,,,,,,,,,,,,,,,-0.449999995,0.152777778,1,0,0,image_0,0,23,23,6,1,1436,A man in a suit and tie standing in a room.,M,0,5,MSR-VTT-videoTestVideo_video9951-shot1_0,Images/MSR-VTT-videoTestVideo_video9951-shot1_0/img0.jpg,Images/MSR-VTT-videoTestVideo_video9951-shot1_0/img3.jpg,Images/MSR-VTT-videoTestVideo_video9951-shot1_0/img6.jpg,Images/MSR-VTT-videoTestVideo_video9951-shot1_0/img9.jpg,Images/MSR-VTT-videoTestVideo_video9951-shot1_0/img12.jpg,Images/MSR-VTT-videoTestVideo_video9951-shot1_0/img17.jpg,Images/MSR-VTT-videoTestVideo_video9951-shot1_0/img23.jpg,Images/MSR-VTT-videoTestVideo_video9951-shot1_0/img33.jpg,Images/MSR-VTT-videoTestVideo_video9951-shot1_0/img37.jpg,Images/MSR-VTT-videoTestVideo_video9951-shot1_0/img41.jpg,1171,1,0,2022-06-14_18h06.25.074,annotation,2021.2.3,Linux x86_64,90.14693951,,
,,,,,,,,,,,,,,,,,-0.21875,-0.143055545,1,0,0,image_6,0,24,24,26,1,809,The person sitting down in the background in a chair has their hands behind their head.  There is a person with a blue Hawaiian shirt on the right side of the picture. ,H,0,4,MSR-VTT-videoTestVideo_video8886-shot1_1,Images/MSR-VTT-videoTestVideo_video8886-shot1_1/img30.jpg,Images/MSR-VTT-videoTestVideo_video8886-shot1_1/img31.jpg,Images/MSR-VTT-videoTestVideo_video8886-shot1_1/img33.jpg,Images/MSR-VTT-videoTestVideo_video8886-shot1_1/img35.jpg,Images/MSR-VTT-videoTestVideo_video8886-shot1_1/img45.jpg,Images/MSR-VTT-videoTestVideo_video8886-shot1_1/img46.jpg,Images/MSR-VTT-videoTestVideo_video8886-shot1_1/img47.jpg,Images/MSR-VTT-videoTestVideo_video8886-shot1_1/img48.jpg,Images/MSR-VTT-videoTestVideo_video8886-shot1_1/img49.jpg,Images/MSR-VTT-videoTestVideo_video8886-shot1_1/img51.jpg,398,1,0,2022-06-14_18h06.25.074,annotation,2021.2.3,Linux x86_64,90.14693951,,
,,,,,,,,,,,,,,,,,-0.047916677,-0.134027799,1,0,0,image_7,0,25,25,21,1,258,The person's nose in the foreground is just above the right side of the window of the camper in the far background. ,H,0,3,video-storytelling-videocamping_dBXYM3dQTSo-shot69_11,Images/video-storytelling-videocamping_dBXYM3dQTSo-shot69_11/img526.jpg,Images/video-storytelling-videocamping_dBXYM3dQTSo-shot69_11/img532.jpg,Images/video-storytelling-videocamping_dBXYM3dQTSo-shot69_11/img535.jpg,Images/video-storytelling-videocamping_dBXYM3dQTSo-shot69_11/img538.jpg,Images/video-storytelling-videocamping_dBXYM3dQTSo-shot69_11/img541.jpg,Images/video-storytelling-videocamping_dBXYM3dQTSo-shot69_11/img542.jpg,Images/video-storytelling-videocamping_dBXYM3dQTSo-shot69_11/img546.jpg,Images/video-storytelling-videocamping_dBXYM3dQTSo-shot69_11/img548.jpg,Images/video-storytelling-videocamping_dBXYM3dQTSo-shot69_11/img553.jpg,Images/video-storytelling-videocamping_dBXYM3dQTSo-shot69_11/img555.jpg,180,1,0,2022-06-14_18h06.25.074,annotation,2021.2.3,Linux x86_64,90.14693951,,
,,,,,,,,,,,,,,,,,0.217361132,-0.147222254,1,0,0,image_8,0,26,26,22,1,1953,Two people are sitting on surfboards in the water.,M,0,1,MSR-VTT-videoTestVideo_video8079-shot1_2,Images/MSR-VTT-videoTestVideo_video8079-shot1_2/img165.jpg,Images/MSR-VTT-videoTestVideo_video8079-shot1_2/img167.jpg,Images/MSR-VTT-videoTestVideo_video8079-shot1_2/img174.jpg,Images/MSR-VTT-videoTestVideo_video8079-shot1_2/img175.jpg,Images/MSR-VTT-videoTestVideo_video8079-shot1_2/img179.jpg,Images/MSR-VTT-videoTestVideo_video8079-shot1_2/img189.jpg,Images/MSR-VTT-videoTestVideo_video8079-shot1_2/img201.jpg,Images/MSR-VTT-videoTestVideo_video8079-shot1_2/img208.jpg,Images/MSR-VTT-videoTestVideo_video8079-shot1_2/img216.jpg,Images/MSR-VTT-videoTestVideo_video8079-shot1_2/img217.jpg,1463,1,0,2022-06-14_18h06.25.074,annotation,2021.2.3,Linux x86_64,90.14693951,,
,,,,,,,,,,,,,,,,,0.447916667,0.129861116,1,0,0,image_4,0,27,27,12,1,1590,Two men standing next to each other in front of a television.,M,0,3,MSR-VTT-videoTestVideo_video8310-shot1_5,Images/MSR-VTT-videoTestVideo_video8310-shot1_5/img323.jpg,Images/MSR-VTT-videoTestVideo_video8310-shot1_5/img328.jpg,Images/MSR-VTT-videoTestVideo_video8310-shot1_5/img334.jpg,Images/MSR-VTT-videoTestVideo_video8310-shot1_5/img338.jpg,Images/MSR-VTT-videoTestVideo_video8310-shot1_5/img342.jpg,Images/MSR-VTT-videoTestVideo_video8310-shot1_5/img343.jpg,Images/MSR-VTT-videoTestVideo_video8310-shot1_5/img349.jpg,Images/MSR-VTT-videoTestVideo_video8310-shot1_5/img354.jpg,Images/MSR-VTT-videoTestVideo_video8310-shot1_5/img359.jpg,Images/MSR-VTT-videoTestVideo_video8310-shot1_5/img362.jpg,1670,1,0,2022-06-14_18h06.25.074,annotation,2021.2.3,Linux x86_64,90.14693951,,
,,,,,,,,,,,,,,,,,0.05763891,0.127777762,1,0,0,image_2,0,28,28,30,1,636,A hand appears from the right with a silver ornament in it.,H,1,2,MSR-VTT-videoTestVideo_video8108-shot1_2,Images/MSR-VTT-videoTestVideo_video8108-shot1_2/img164.jpg,Images/MSR-VTT-videoTestVideo_video8108-shot1_2/img183.jpg,Images/MSR-VTT-videoTestVideo_video8108-shot1_2/img200.jpg,Images/MSR-VTT-videoTestVideo_video8108-shot1_2/img213.jpg,Images/MSR-VTT-videoTestVideo_video8108-shot1_2/img238.jpg,Images/MSR-VTT-videoTestVideo_video8108-shot1_2/img243.jpg,Images/MSR-VTT-videoTestVideo_video8108-shot1_2/img250.jpg,Images/MSR-VTT-videoTestVideo_video8108-shot1_2/img253.jpg,Images/MSR-VTT-videoTestVideo_video8108-shot1_2/img265.jpg,Images/MSR-VTT-videoTestVideo_video8108-shot1_2/img276.jpg,583,1,0,2022-06-14_18h06.25.074,annotation,2021.2.3,Linux x86_64,90.14693951,,
,,,,,,,,,,,,,,,,,-0.065277788,0.125,1,0,0,image_2,0,29,29,1,1,658,A big backpack protruding out the bottom right corner. There is no sun shining on the backpack as it is under a shadow. ,H,0,2,MSR-VTT-videoTestVideo_video7780-shot3_4,Images/MSR-VTT-videoTestVideo_video7780-shot3_4/img75.jpg,Images/MSR-VTT-videoTestVideo_video7780-shot3_4/img76.jpg,Images/MSR-VTT-videoTestVideo_video7780-shot3_4/img77.jpg,Images/MSR-VTT-videoTestVideo_video7780-shot3_4/img78.jpg,Images/MSR-VTT-videoTestVideo_video7780-shot3_4/img79.jpg,Images/MSR-VTT-videoTestVideo_video7780-shot3_4/img80.jpg,Images/MSR-VTT-videoTestVideo_video7780-shot3_4/img82.jpg,Images/MSR-VTT-videoTestVideo_video7780-shot3_4/img83.jpg,Images/MSR-VTT-videoTestVideo_video7780-shot3_4/img86.jpg,Images/MSR-VTT-videoTestVideo_video7780-shot3_4/img87.jpg,1518,1,0,2022-06-14_18h06.25.074,annotation,2021.2.3,Linux x86_64,90.14693951,,
,,,,,,,,,,,,,,,,,-0.071527746,0.121527778,1,0,0,image_2,0,30,30,9,1,1336,A woman is talking on her cell phone.,M,0,9,video-storytelling-videocamping_1OzbiB1TIWI-shot12_8,Images/video-storytelling-videocamping_1OzbiB1TIWI-shot12_8/img429.jpg,Images/video-storytelling-videocamping_1OzbiB1TIWI-shot12_8/img439.jpg,Images/video-storytelling-videocamping_1OzbiB1TIWI-shot12_8/img440.jpg,Images/video-storytelling-videocamping_1OzbiB1TIWI-shot12_8/img441.jpg,Images/video-storytelling-videocamping_1OzbiB1TIWI-shot12_8/img443.jpg,Images/video-storytelling-videocamping_1OzbiB1TIWI-shot12_8/img445.jpg,Images/video-storytelling-videocamping_1OzbiB1TIWI-shot12_8/img452.jpg,Images/video-storytelling-videocamping_1OzbiB1TIWI-shot12_8/img456.jpg,Images/video-storytelling-videocamping_1OzbiB1TIWI-shot12_8/img458.jpg,Images/video-storytelling-videocamping_1OzbiB1TIWI-shot12_8/img466.jpg,1997,1,0,2022-06-14_18h06.25.074,annotation,2021.2.3,Linux x86_64,90.14693951,,
,,,,,,,,,,,,,,,,,0.02638891,0.109722217,1,0,0,image_2,0,31,31,18,1,1324,A woman standing next to a bed with a shirt on.,M,1,7,video-storytelling-videocamping_dBXYM3dQTSo-shot10_0,Images/video-storytelling-videocamping_dBXYM3dQTSo-shot10_0/img0.jpg,Images/video-storytelling-videocamping_dBXYM3dQTSo-shot10_0/img2.jpg,Images/video-storytelling-videocamping_dBXYM3dQTSo-shot10_0/img17.jpg,Images/video-storytelling-videocamping_dBXYM3dQTSo-shot10_0/img100.jpg,Images/video-storytelling-videocamping_dBXYM3dQTSo-shot10_0/img120.jpg,Images/video-storytelling-videocamping_dBXYM3dQTSo-shot10_0/img245.jpg,Images/video-storytelling-videocamping_dBXYM3dQTSo-shot10_0/img250.jpg,Images/video-storytelling-videocamping_dBXYM3dQTSo-shot10_0/img254.jpg,Images/video-storytelling-videocamping_dBXYM3dQTSo-shot10_0/img262.jpg,Images/video-storytelling-videocamping_dBXYM3dQTSo-shot10_0/img266.jpg,1014,1,0,2022-06-14_18h06.25.074,annotation,2021.2.3,Linux x86_64,90.14693951,,
,,,,,,,,,,,,,,,,,0.506944444,0.113888873,1,0,0,image_4,0,32,32,47,1,588,"The picture is not very blurry. The girl in the camo jacket is pointing at the camera, her face is half cut off, can't see her nose.",H,0,4,video-storytelling-videocamping_1OzbiB1TIWI-shot12_13,Images/video-storytelling-videocamping_1OzbiB1TIWI-shot12_13/img663.jpg,Images/video-storytelling-videocamping_1OzbiB1TIWI-shot12_13/img681.jpg,Images/video-storytelling-videocamping_1OzbiB1TIWI-shot12_13/img691.jpg,Images/video-storytelling-videocamping_1OzbiB1TIWI-shot12_13/img697.jpg,Images/video-storytelling-videocamping_1OzbiB1TIWI-shot12_13/img705.jpg,Images/video-storytelling-videocamping_1OzbiB1TIWI-shot12_13/img707.jpg,Images/video-storytelling-videocamping_1OzbiB1TIWI-shot12_13/img708.jpg,Images/video-storytelling-videocamping_1OzbiB1TIWI-shot12_13/img712.jpg,Images/video-storytelling-videocamping_1OzbiB1TIWI-shot12_13/img713.jpg,Images/video-storytelling-videocamping_1OzbiB1TIWI-shot12_13/img716.jpg,1538,1,0,2022-06-14_18h06.25.074,annotation,2021.2.3,Linux x86_64,90.14693951,,
,,,,,,,,,,,,,,,,,0.043055534,0.136111101,1,0,0,image_2,0,33,33,53,1,1524,A group of kids sitting at a table in a classroom.,M,0,4,MSR-VTT-videoTestVideo_video9228-shot4_1,Images/MSR-VTT-videoTestVideo_video9228-shot4_1/img102.jpg,Images/MSR-VTT-videoTestVideo_video9228-shot4_1/img128.jpg,Images/MSR-VTT-videoTestVideo_video9228-shot4_1/img134.jpg,Images/MSR-VTT-videoTestVideo_video9228-shot4_1/img147.jpg,Images/MSR-VTT-videoTestVideo_video9228-shot4_1/img172.jpg,Images/MSR-VTT-videoTestVideo_video9228-shot4_1/img246.jpg,Images/MSR-VTT-videoTestVideo_video9228-shot4_1/img252.jpg,Images/MSR-VTT-videoTestVideo_video9228-shot4_1/img257.jpg,Images/MSR-VTT-videoTestVideo_video9228-shot4_1/img262.jpg,Images/MSR-VTT-videoTestVideo_video9228-shot4_1/img269.jpg,349,1,0,2022-06-14_18h06.25.074,annotation,2021.2.3,Linux x86_64,90.14693951,,
,,,,,,,,,,,,,,,,,-0.436111079,0.103472206,1,0,0,image_0,0,34,34,5,1,1810,A refrigerator with a bunch of bananas on top of it.,M,0,8,MSR-VTT-videoTestVideo_video7541-shot1_1,Images/MSR-VTT-videoTestVideo_video7541-shot1_1/img54.jpg,Images/MSR-VTT-videoTestVideo_video7541-shot1_1/img63.jpg,Images/MSR-VTT-videoTestVideo_video7541-shot1_1/img66.jpg,Images/MSR-VTT-videoTestVideo_video7541-shot1_1/img69.jpg,Images/MSR-VTT-videoTestVideo_video7541-shot1_1/img80.jpg,Images/MSR-VTT-videoTestVideo_video7541-shot1_1/img92.jpg,Images/MSR-VTT-videoTestVideo_video7541-shot1_1/img99.jpg,Images/MSR-VTT-videoTestVideo_video7541-shot1_1/img110.jpg,Images/MSR-VTT-videoTestVideo_video7541-shot1_1/img122.jpg,Images/MSR-VTT-videoTestVideo_video7541-shot1_1/img125.jpg,561,1,0,2022-06-14_18h06.25.074,annotation,2021.2.3,Linux x86_64,90.14693951,,
,,,,,,,,,,,,,,,,,0.060416645,-0.118055556,1,0,0,image_7,0,35,35,31,1,1785,a close up of a person holding a cell phone.,M,0,5,MSR-VTT-videoTestVideo_video7657-shot2_0,Images/MSR-VTT-videoTestVideo_video7657-shot2_0/img0.jpg,Images/MSR-VTT-videoTestVideo_video7657-shot2_0/img4.jpg,Images/MSR-VTT-videoTestVideo_video7657-shot2_0/img12.jpg,Images/MSR-VTT-videoTestVideo_video7657-shot2_0/img14.jpg,Images/MSR-VTT-videoTestVideo_video7657-shot2_0/img22.jpg,Images/MSR-VTT-videoTestVideo_video7657-shot2_0/img30.jpg,Images/MSR-VTT-videoTestVideo_video7657-shot2_0/img39.jpg,Images/MSR-VTT-videoTestVideo_video7657-shot2_0/img42.jpg,Images/MSR-VTT-videoTestVideo_video7657-shot2_0/img48.jpg,Images/MSR-VTT-videoTestVideo_video7657-shot2_0/img54.jpg,1881,1,0,2022-06-14_18h06.25.074,annotation,2021.2.3,Linux x86_64,90.14693951,,
,,,,,,,,,,,,,,,,,-0.013888889,-0.145833333,1,0,0,image_7,0,36,36,7,1,146,The right side of the child's face is cut off on the left side of the image.  Her eyes are closed but you could seen both eyes if she had them open.  Her mouth appears slightly open.  Her left hand is just starting to come off of the blanket she has on top of her. ,H,0,7,MSR-VTT-videoTestVideo_video8058-shot1_0,Images/MSR-VTT-videoTestVideo_video8058-shot1_0/img0.jpg,Images/MSR-VTT-videoTestVideo_video8058-shot1_0/img18.jpg,Images/MSR-VTT-videoTestVideo_video8058-shot1_0/img33.jpg,Images/MSR-VTT-videoTestVideo_video8058-shot1_0/img37.jpg,Images/MSR-VTT-videoTestVideo_video8058-shot1_0/img73.jpg,Images/MSR-VTT-videoTestVideo_video8058-shot1_0/img103.jpg,Images/MSR-VTT-videoTestVideo_video8058-shot1_0/img153.jpg,Images/MSR-VTT-videoTestVideo_video8058-shot1_0/img188.jpg,Images/MSR-VTT-videoTestVideo_video8058-shot1_0/img191.jpg,Images/MSR-VTT-videoTestVideo_video8058-shot1_0/img195.jpg,1650,1,0,2022-06-14_18h06.25.074,annotation,2021.2.3,Linux x86_64,90.14693951,,
,,,,,,,,,,,,,,,,,-0.212499989,0.135416667,1,0,0,image_1,0,37,37,10,1,1874,A group of men standing next to each other.,M,1,4,MSR-VTT-videoTestVideo_video9602-shot1_0,Images/MSR-VTT-videoTestVideo_video9602-shot1_0/img7.jpg,Images/MSR-VTT-videoTestVideo_video9602-shot1_0/img31.jpg,Images/MSR-VTT-videoTestVideo_video9602-shot1_0/img52.jpg,Images/MSR-VTT-videoTestVideo_video9602-shot1_0/img121.jpg,Images/MSR-VTT-videoTestVideo_video9602-shot1_0/img154.jpg,Images/MSR-VTT-videoTestVideo_video9602-shot1_0/img245.jpg,Images/MSR-VTT-videoTestVideo_video9602-shot1_0/img281.jpg,Images/MSR-VTT-videoTestVideo_video9602-shot1_0/img332.jpg,Images/MSR-VTT-videoTestVideo_video9602-shot1_0/img355.jpg,Images/MSR-VTT-videoTestVideo_video9602-shot1_0/img360.jpg,442,1,0,2022-06-14_18h06.25.074,annotation,2021.2.3,Linux x86_64,90.14693951,,
,,,,,,,,,,,,,,,,,0.037500064,0.184722212,1,0,0,image_2,0,38,38,45,1,824,One leaf behind the cheese with the hand obscuring almost all of it. Can see a little of the cheese between his index and middle finger,H,0,2,YouCook-video0082-shot1_0,Images/YouCook-video0082-shot1_0/img0.jpg,Images/YouCook-video0082-shot1_0/img7.jpg,Images/YouCook-video0082-shot1_0/img18.jpg,Images/YouCook-video0082-shot1_0/img92.jpg,Images/YouCook-video0082-shot1_0/img95.jpg,Images/YouCook-video0082-shot1_0/img116.jpg,Images/YouCook-video0082-shot1_0/img159.jpg,Images/YouCook-video0082-shot1_0/img167.jpg,Images/YouCook-video0082-shot1_0/img174.jpg,Images/YouCook-video0082-shot1_0/img200.jpg,125,1,0,2022-06-14_18h06.25.074,annotation,2021.2.3,Linux x86_64,90.14693951,,
,,,,,,,,,,,,,,,,,0.237499979,-0.190972222,1,0,0,image_8,0,39,39,28,1,704,A cop is talking to a man with his thumb up.,H,1,7,MSR-VTT-videoTestVideo_video8691-shot1_1,Images/MSR-VTT-videoTestVideo_video8691-shot1_1/img113.jpg,Images/MSR-VTT-videoTestVideo_video8691-shot1_1/img117.jpg,Images/MSR-VTT-videoTestVideo_video8691-shot1_1/img120.jpg,Images/MSR-VTT-videoTestVideo_video8691-shot1_1/img124.jpg,Images/MSR-VTT-videoTestVideo_video8691-shot1_1/img130.jpg,Images/MSR-VTT-videoTestVideo_video8691-shot1_1/img141.jpg,Images/MSR-VTT-videoTestVideo_video8691-shot1_1/img148.jpg,Images/MSR-VTT-videoTestVideo_video8691-shot1_1/img154.jpg,Images/MSR-VTT-videoTestVideo_video8691-shot1_1/img163.jpg,Images/MSR-VTT-videoTestVideo_video8691-shot1_1/img175.jpg,1943,1,0,2022-06-14_18h06.25.074,annotation,2021.2.3,Linux x86_64,90.14693951,,
,,,,,,,,,,,,,,,,,-0.438888868,0.099999984,1,0,0,image_0,0,40,40,23,1,1960,A person holding a piece of fruit on a table.,M,0,7,YouCook-video0034-shot16_2,Images/YouCook-video0034-shot16_2/img275.jpg,Images/YouCook-video0034-shot16_2/img280.jpg,Images/YouCook-video0034-shot16_2/img291.jpg,Images/YouCook-video0034-shot16_2/img301.jpg,Images/YouCook-video0034-shot16_2/img338.jpg,Images/YouCook-video0034-shot16_2/img344.jpg,Images/YouCook-video0034-shot16_2/img347.jpg,Images/YouCook-video0034-shot16_2/img350.jpg,Images/YouCook-video0034-shot16_2/img354.jpg,Images/YouCook-video0034-shot16_2/img367.jpg,1462,1,0,2022-06-14_18h06.25.074,annotation,2021.2.3,Linux x86_64,90.14693951,,
,,,,,,,,,,,,,,,,,0.493055556,0.113194439,1,0,0,image_4,0,41,41,51,1,961,The girl have her legs bent and feet planted on the ground for a jump. Her hands are behind her knees. ,H,0,5,video-storytelling-videobirthday__amwPjAcoC8-shot61_22,Images/video-storytelling-videobirthday__amwPjAcoC8-shot61_22/img512.jpg,Images/video-storytelling-videobirthday__amwPjAcoC8-shot61_22/img515.jpg,Images/video-storytelling-videobirthday__amwPjAcoC8-shot61_22/img521.jpg,Images/video-storytelling-videobirthday__amwPjAcoC8-shot61_22/img522.jpg,Images/video-storytelling-videobirthday__amwPjAcoC8-shot61_22/img525.jpg,Images/video-storytelling-videobirthday__amwPjAcoC8-shot61_22/img528.jpg,Images/video-storytelling-videobirthday__amwPjAcoC8-shot61_22/img529.jpg,Images/video-storytelling-videobirthday__amwPjAcoC8-shot61_22/img534.jpg,Images/video-storytelling-videobirthday__amwPjAcoC8-shot61_22/img541.jpg,Images/video-storytelling-videobirthday__amwPjAcoC8-shot61_22/img545.jpg,1824,1,0,2022-06-14_18h06.25.074,annotation,2021.2.3,Linux x86_64,90.14693951,,
,,,,,,,,,,,,,,,,,-0.488888873,-0.206250032,1,0,0,image_5,0,42,42,39,1,405,The mic of the woman in the foreground mostly blocks the arm holding it,H,0,5,MSR-VTT-videoTestVideo_video7756-shot1_0,Images/MSR-VTT-videoTestVideo_video7756-shot1_0/img0.jpg,Images/MSR-VTT-videoTestVideo_video7756-shot1_0/img5.jpg,Images/MSR-VTT-videoTestVideo_video7756-shot1_0/img12.jpg,Images/MSR-VTT-videoTestVideo_video7756-shot1_0/img16.jpg,Images/MSR-VTT-videoTestVideo_video7756-shot1_0/img21.jpg,Images/MSR-VTT-videoTestVideo_video7756-shot1_0/img26.jpg,Images/MSR-VTT-videoTestVideo_video7756-shot1_0/img28.jpg,Images/MSR-VTT-videoTestVideo_video7756-shot1_0/img30.jpg,Images/MSR-VTT-videoTestVideo_video7756-shot1_0/img34.jpg,Images/MSR-VTT-videoTestVideo_video7756-shot1_0/img37.jpg,1387,1,0,2022-06-14_18h06.25.074,annotation,2021.2.3,Linux x86_64,90.14693951,,
,,,,,,,,,,,,,,,,,-0.474999984,-0.14027781,1,0,0,image_5,0,43,43,8,1,1329,A little boy playing with a fire hydrant.,M,0,7,video-storytelling-videobirthday__amwPjAcoC8-shot42_0,Images/video-storytelling-videobirthday__amwPjAcoC8-shot42_0/img0.jpg,Images/video-storytelling-videobirthday__amwPjAcoC8-shot42_0/img2.jpg,Images/video-storytelling-videobirthday__amwPjAcoC8-shot42_0/img5.jpg,Images/video-storytelling-videobirthday__amwPjAcoC8-shot42_0/img8.jpg,Images/video-storytelling-videobirthday__amwPjAcoC8-shot42_0/img14.jpg,Images/video-storytelling-videobirthday__amwPjAcoC8-shot42_0/img23.jpg,Images/video-storytelling-videobirthday__amwPjAcoC8-shot42_0/img25.jpg,Images/video-storytelling-videobirthday__amwPjAcoC8-shot42_0/img27.jpg,Images/video-storytelling-videobirthday__amwPjAcoC8-shot42_0/img29.jpg,Images/video-storytelling-videobirthday__amwPjAcoC8-shot42_0/img33.jpg,2002,1,0,2022-06-14_18h06.25.074,annotation,2021.2.3,Linux x86_64,90.14693951,,
,,,,,,,,,,,,,,,,,0.060416645,-0.152777778,1,0,0,image_7,0,44,44,33,1,156,Woman holding but has right shoulder kissing edge of right part of frame.,H,0,7,video-storytelling-videocamping_1OzbiB1TIWI-shot7_10,Images/video-storytelling-videocamping_1OzbiB1TIWI-shot7_10/img646.jpg,Images/video-storytelling-videocamping_1OzbiB1TIWI-shot7_10/img654.jpg,Images/video-storytelling-videocamping_1OzbiB1TIWI-shot7_10/img656.jpg,Images/video-storytelling-videocamping_1OzbiB1TIWI-shot7_10/img661.jpg,Images/video-storytelling-videocamping_1OzbiB1TIWI-shot7_10/img675.jpg,Images/video-storytelling-videocamping_1OzbiB1TIWI-shot7_10/img681.jpg,Images/video-storytelling-videocamping_1OzbiB1TIWI-shot7_10/img682.jpg,Images/video-storytelling-videocamping_1OzbiB1TIWI-shot7_10/img683.jpg,Images/video-storytelling-videocamping_1OzbiB1TIWI-shot7_10/img685.jpg,Images/video-storytelling-videocamping_1OzbiB1TIWI-shot7_10/img688.jpg,1553,1,0,2022-06-14_18h06.25.074,annotation,2021.2.3,Linux x86_64,90.14693951,,
,,,,,,,,,,,,,,,,,0.495833397,-0.149999989,1,0,0,image_9,0,45,45,60,1,2,Green type writer with a red tape. ,H,,9,open-images-531_0dd4eb59d465a8be,Checks/check3/open-images-503_1ccd6fa641154ebbimg7.jpg,Checks/check3/open-images-1852_00faf52058ad28b8img4.jpg,Checks/check3/open-images-386_1b2e28d6d994603eimg1.jpg,Checks/check3/open-images-471_1121e9f97c200ac0img8.jpg,Checks/check3/open-images-1886_3db71eaddb618934img8.jpg,Checks/check3/open-images-1696_20a4ebf0c0f76b05img6.jpg,Checks/check3/open-images-2447_128483a48e1552f4img6.jpg,Checks/check3/open-images-2994_9965cbf8aa20bda0img2.jpg,Checks/check3/open-images-1068_03d63613107970b3img6.jpg,Checks/check3/open-images-531_0dd4eb59d465a8beimg9.jpg,,,1,2022-06-14_18h06.25.074,annotation,2021.2.3,Linux x86_64,90.14693951,,
,,,,,,,,,,,,,,,,,0.295833376,0.120833317,1,0,0,image_3,0,46,46,54,1,2002,A woman is standing in front of a computer monitor.,M,0,6,MSR-VTT-videoTestVideo_video9196-shot1_1,Images/MSR-VTT-videoTestVideo_video9196-shot1_1/img24.jpg,Images/MSR-VTT-videoTestVideo_video9196-shot1_1/img29.jpg,Images/MSR-VTT-videoTestVideo_video9196-shot1_1/img32.jpg,Images/MSR-VTT-videoTestVideo_video9196-shot1_1/img35.jpg,Images/MSR-VTT-videoTestVideo_video9196-shot1_1/img48.jpg,Images/MSR-VTT-videoTestVideo_video9196-shot1_1/img66.jpg,Images/MSR-VTT-videoTestVideo_video9196-shot1_1/img81.jpg,Images/MSR-VTT-videoTestVideo_video9196-shot1_1/img89.jpg,Images/MSR-VTT-videoTestVideo_video9196-shot1_1/img98.jpg,Images/MSR-VTT-videoTestVideo_video9196-shot1_1/img107.jpg,1869,1,0,2022-06-14_18h06.25.074,annotation,2021.2.3,Linux x86_64,90.14693951,,
,,,,,,,,,,,,,,,,,-0.427083333,0.115277767,1,0,0,image_0,0,47,47,15,1,1499,A close up view of a metal grille.,M,1,3,MSR-VTT-videoTestVideo_video8095-shot1_1,Images/MSR-VTT-videoTestVideo_video8095-shot1_1/img307.jpg,Images/MSR-VTT-videoTestVideo_video8095-shot1_1/img332.jpg,Images/MSR-VTT-videoTestVideo_video8095-shot1_1/img390.jpg,Images/MSR-VTT-videoTestVideo_video8095-shot1_1/img395.jpg,Images/MSR-VTT-videoTestVideo_video8095-shot1_1/img423.jpg,Images/MSR-VTT-videoTestVideo_video8095-shot1_1/img425.jpg,Images/MSR-VTT-videoTestVideo_video8095-shot1_1/img426.jpg,Images/MSR-VTT-videoTestVideo_video8095-shot1_1/img432.jpg,Images/MSR-VTT-videoTestVideo_video8095-shot1_1/img449.jpg,Images/MSR-VTT-videoTestVideo_video8095-shot1_1/img463.jpg,553,1,0,2022-06-14_18h06.25.074,annotation,2021.2.3,Linux x86_64,90.14693951,,
,,,,,,,,,,,,,,,,,-0.000694434,0.147222228,1,0,0,image_2,0,48,48,58,1,0,Pair of black gloves,H,,2,open-images-510_3a241cb30d6e5319,Checks/check1/open-images-225_1442c0d0ef23d58bimg3.jpg,Checks/check1/open-images-2759_3a42708fe77398b7img8.jpg,Checks/check1/open-images-510_3a241cb30d6e5319img2.jpg,Checks/check1/open-images-2209_02c98146fb93ff17img1.jpg,Checks/check1/open-images-1553_0f128317e56a9d2fimg9.jpg,Checks/check1/open-images-2666_044d7c6d11e6b493img8.jpg,Checks/check1/open-images-2880_159294646083f545img4.jpg,Checks/check1/open-images-609_2dc0baa993a2bd25img5.jpg,Checks/check1/open-images-1854_2b15616b4f1080e7img2.jpg,Checks/check1/open-images-1435_1b0ce31951048765img8.jpg,,,1,2022-06-14_18h06.25.074,annotation,2021.2.3,Linux x86_64,90.14693951,,
,,,,,,,,,,,,,,,,,-0.514583323,-0.154861132,1,0,0,image_5,0,49,49,59,1,1,The only picture of a hawk.  It is looking to the left.  You see lots of branches and darker blue sky. ,H,,5,open-images-958_686caac9c5b322e7,Checks/check2/open-images-2603_1b5152f01f0093e7img3.jpg,Checks/check2/open-images-1836_069810916ce5d675img8.jpg,Checks/check2/open-images-974_0748fdedc4bf8b7bimg2.jpg,Checks/check2/open-images-617_01fb725fb1aa7b04img6.jpg,Checks/check2/open-images-507_047769e1f977cd97img2.jpg,Checks/check2/open-images-958_686caac9c5b322e7img5.jpg,Checks/check2/open-images-1278_21851d9bf5dc05c9img7.jpg,Checks/check2/open-images-2424_05f04546e01499f2img0.jpg,Checks/check2/open-images-1529_1442b11a10a6aeadimg3.jpg,Checks/check2/open-images-514_2c523ddedc2561d4img1.jpg,,,1,2022-06-14_18h06.25.074,annotation,2021.2.3,Linux x86_64,90.14693951,,
,,,,,,,,,,,,,,,,,0.311111132,0.138194429,1,0,0,image_3,0,50,50,34,1,890,The man in blue has his hand the nearest to his face in a claw shape.  He has a slight smile on his face. ,H,0,3,MSR-VTT-videoTestVideo_video8411-shot1_1,Images/MSR-VTT-videoTestVideo_video8411-shot1_1/img106.jpg,Images/MSR-VTT-videoTestVideo_video8411-shot1_1/img115.jpg,Images/MSR-VTT-videoTestVideo_video8411-shot1_1/img125.jpg,Images/MSR-VTT-videoTestVideo_video8411-shot1_1/img142.jpg,Images/MSR-VTT-videoTestVideo_video8411-shot1_1/img152.jpg,Images/MSR-VTT-videoTestVideo_video8411-shot1_1/img185.jpg,Images/MSR-VTT-videoTestVideo_video8411-shot1_1/img219.jpg,Images/MSR-VTT-videoTestVideo_video8411-shot1_1/img248.jpg,Images/MSR-VTT-videoTestVideo_video8411-shot1_1/img265.jpg,Images/MSR-VTT-videoTestVideo_video8411-shot1_1/img273.jpg,353,1,0,2022-06-14_18h06.25.074,annotation,2021.2.3,Linux x86_64,90.14693951,,
,,,,,,,,,,,,,,,,,0.431944423,0.138888889,1,0,0,image_4,0,51,51,36,1,122,Part of the woman in the tan jacket's face is covered by her own hand,H,0,1,video-storytelling-videocamping_1OzbiB1TIWI-shot5_2,Images/video-storytelling-videocamping_1OzbiB1TIWI-shot5_2/img138.jpg,Images/video-storytelling-videocamping_1OzbiB1TIWI-shot5_2/img142.jpg,Images/video-storytelling-videocamping_1OzbiB1TIWI-shot5_2/img143.jpg,Images/video-storytelling-videocamping_1OzbiB1TIWI-shot5_2/img151.jpg,Images/video-storytelling-videocamping_1OzbiB1TIWI-shot5_2/img155.jpg,Images/video-storytelling-videocamping_1OzbiB1TIWI-shot5_2/img160.jpg,Images/video-storytelling-videocamping_1OzbiB1TIWI-shot5_2/img170.jpg,Images/video-storytelling-videocamping_1OzbiB1TIWI-shot5_2/img173.jpg,Images/video-storytelling-videocamping_1OzbiB1TIWI-shot5_2/img177.jpg,Images/video-storytelling-videocamping_1OzbiB1TIWI-shot5_2/img179.jpg,1093,1,0,2022-06-14_18h06.25.074,annotation,2021.2.3,Linux x86_64,90.14693951,,
,,,,,,,,,,,,,,,,,0.495833397,-0.125694434,1,0,0,image_9,0,52,52,48,1,1471,A group of people standing on a beach.,M,0,4,video-storytelling-videocamping_1OzbiB1TIWI-shot14_6,Images/video-storytelling-videocamping_1OzbiB1TIWI-shot14_6/img922.jpg,Images/video-storytelling-videocamping_1OzbiB1TIWI-shot14_6/img930.jpg,Images/video-storytelling-videocamping_1OzbiB1TIWI-shot14_6/img932.jpg,Images/video-storytelling-videocamping_1OzbiB1TIWI-shot14_6/img943.jpg,Images/video-storytelling-videocamping_1OzbiB1TIWI-shot14_6/img949.jpg,Images/video-storytelling-videocamping_1OzbiB1TIWI-shot14_6/img955.jpg,Images/video-storytelling-videocamping_1OzbiB1TIWI-shot14_6/img958.jpg,Images/video-storytelling-videocamping_1OzbiB1TIWI-shot14_6/img967.jpg,Images/video-storytelling-videocamping_1OzbiB1TIWI-shot14_6/img969.jpg,Images/video-storytelling-videocamping_1OzbiB1TIWI-shot14_6/img973.jpg,2028,1,0,2022-06-14_18h06.25.074,annotation,2021.2.3,Linux x86_64,90.14693951,,
,,,,,,,,,,,,,,,,,0.449305534,-0.121527778,1,0,0,image_9,0,53,53,2,1,1583,A person serving a bowl of food on a table.,M,0,2,YouCook-video0084-shot22_0,Images/YouCook-video0084-shot22_0/img0.jpg,Images/YouCook-video0084-shot22_0/img3.jpg,Images/YouCook-video0084-shot22_0/img5.jpg,Images/YouCook-video0084-shot22_0/img9.jpg,Images/YouCook-video0084-shot22_0/img18.jpg,Images/YouCook-video0084-shot22_0/img21.jpg,Images/YouCook-video0084-shot22_0/img24.jpg,Images/YouCook-video0084-shot22_0/img35.jpg,Images/YouCook-video0084-shot22_0/img38.jpg,Images/YouCook-video0084-shot22_0/img45.jpg,1642,1,0,2022-06-14_18h06.25.074,annotation,2021.2.3,Linux x86_64,90.14693951,,
,,,,,,,,,,,,,,,,,0.186111132,0.137499995,1,0,0,image_3,0,54,54,41,1,1390,A group of people walking in a grassy area.,M,0,4,video-storytelling-videowedding_Bp8t824h5NE-shot55_3,Images/video-storytelling-videowedding_Bp8t824h5NE-shot55_3/img501.jpg,Images/video-storytelling-videowedding_Bp8t824h5NE-shot55_3/img510.jpg,Images/video-storytelling-videowedding_Bp8t824h5NE-shot55_3/img516.jpg,Images/video-storytelling-videowedding_Bp8t824h5NE-shot55_3/img519.jpg,Images/video-storytelling-videowedding_Bp8t824h5NE-shot55_3/img522.jpg,Images/video-storytelling-videowedding_Bp8t824h5NE-shot55_3/img525.jpg,Images/video-storytelling-videowedding_Bp8t824h5NE-shot55_3/img528.jpg,Images/video-storytelling-videowedding_Bp8t824h5NE-shot55_3/img531.jpg,Images/video-storytelling-videowedding_Bp8t824h5NE-shot55_3/img552.jpg,Images/video-storytelling-videowedding_Bp8t824h5NE-shot55_3/img596.jpg,367,1,0,2022-06-14_18h06.25.074,annotation,2021.2.3,Linux x86_64,90.14693951,,
,,,,,,,,,,,,,,,,,0.46388891,-0.105555587,1,0,0,image_9,0,55,55,19,1,631,You can see the spoon on top of the cake in the icing is almost spread all over the cake,H,0,9,YouCook-video0008-shot6_0,Images/YouCook-video0008-shot6_0/img0.jpg,Images/YouCook-video0008-shot6_0/img17.jpg,Images/YouCook-video0008-shot6_0/img46.jpg,Images/YouCook-video0008-shot6_0/img64.jpg,Images/YouCook-video0008-shot6_0/img114.jpg,Images/YouCook-video0008-shot6_0/img118.jpg,Images/YouCook-video0008-shot6_0/img143.jpg,Images/YouCook-video0008-shot6_0/img150.jpg,Images/YouCook-video0008-shot6_0/img171.jpg,Images/YouCook-video0008-shot6_0/img251.jpg,929,1,0,2022-06-14_18h06.25.074,annotation,2021.2.3,Linux x86_64,90.14693951,,
,,,,,,,,,,,,,,,,,-0.222222222,-0.159027788,1,0,0,image_6,0,56,56,25,1,1169,a close up of a large number of roses in a cake.,M,1,5,video-storytelling-videobirthday_fwpYnUDbusw-shot15_0,Images/video-storytelling-videobirthday_fwpYnUDbusw-shot15_0/img0.jpg,Images/video-storytelling-videobirthday_fwpYnUDbusw-shot15_0/img3.jpg,Images/video-storytelling-videobirthday_fwpYnUDbusw-shot15_0/img6.jpg,Images/video-storytelling-videobirthday_fwpYnUDbusw-shot15_0/img11.jpg,Images/video-storytelling-videobirthday_fwpYnUDbusw-shot15_0/img19.jpg,Images/video-storytelling-videobirthday_fwpYnUDbusw-shot15_0/img27.jpg,Images/video-storytelling-videobirthday_fwpYnUDbusw-shot15_0/img37.jpg,Images/video-storytelling-videobirthday_fwpYnUDbusw-shot15_0/img70.jpg,Images/video-storytelling-videobirthday_fwpYnUDbusw-shot15_0/img113.jpg,Images/video-storytelling-videobirthday_fwpYnUDbusw-shot15_0/img131.jpg,1746,1,0,2022-06-14_18h06.25.074,annotation,2021.2.3,Linux x86_64,90.14693951,,
,,,,,,,,,,,,,,,,,-0.447916667,0.121527778,1,0,0,image_0,0,57,57,17,1,1661,A couple of cars driving down the road.,M,0,3,MSR-VTT-videoTestVideo_video7662-shot2_0,Images/MSR-VTT-videoTestVideo_video7662-shot2_0/img0.jpg,Images/MSR-VTT-videoTestVideo_video7662-shot2_0/img9.jpg,Images/MSR-VTT-videoTestVideo_video7662-shot2_0/img15.jpg,Images/MSR-VTT-videoTestVideo_video7662-shot2_0/img49.jpg,Images/MSR-VTT-videoTestVideo_video7662-shot2_0/img75.jpg,Images/MSR-VTT-videoTestVideo_video7662-shot2_0/img85.jpg,Images/MSR-VTT-videoTestVideo_video7662-shot2_0/img105.jpg,Images/MSR-VTT-videoTestVideo_video7662-shot2_0/img117.jpg,Images/MSR-VTT-videoTestVideo_video7662-shot2_0/img121.jpg,Images/MSR-VTT-videoTestVideo_video7662-shot2_0/img130.jpg,788,1,0,2022-06-14_18h06.25.074,annotation,2021.2.3,Linux x86_64,90.14693951,,
,,,,,,,,,,,,,,,,,-0.049305545,0.097222222,1,0,0,image_2,0,58,58,13,1,2085,A woman holding a cell phone in front of a stage.,M,0,6,MSR-VTT-videoTestVideo_video7756-shot1_0,Images/MSR-VTT-videoTestVideo_video7756-shot1_0/img0.jpg,Images/MSR-VTT-videoTestVideo_video7756-shot1_0/img5.jpg,Images/MSR-VTT-videoTestVideo_video7756-shot1_0/img12.jpg,Images/MSR-VTT-videoTestVideo_video7756-shot1_0/img16.jpg,Images/MSR-VTT-videoTestVideo_video7756-shot1_0/img21.jpg,Images/MSR-VTT-videoTestVideo_video7756-shot1_0/img26.jpg,Images/MSR-VTT-videoTestVideo_video7756-shot1_0/img28.jpg,Images/MSR-VTT-videoTestVideo_video7756-shot1_0/img30.jpg,Images/MSR-VTT-videoTestVideo_video7756-shot1_0/img34.jpg,Images/MSR-VTT-videoTestVideo_video7756-shot1_0/img37.jpg,852,1,0,2022-06-14_18h06.25.074,annotation,2021.2.3,Linux x86_64,90.14693951,,
,,,,,,,,,,,,,,,,,-0.022222201,0.143750005,1,0,0,image_2,0,59,59,42,1,157,The boy in green is starting to block some of the dog's body.  The right ear on the hat is right next to the star on the dog's uniform. ,H,1,2,video-storytelling-videobirthday__amwPjAcoC8-shot14_0,Images/video-storytelling-videobirthday__amwPjAcoC8-shot14_0/img0.jpg,Images/video-storytelling-videobirthday__amwPjAcoC8-shot14_0/img6.jpg,Images/video-storytelling-videobirthday__amwPjAcoC8-shot14_0/img11.jpg,Images/video-storytelling-videobirthday__amwPjAcoC8-shot14_0/img14.jpg,Images/video-storytelling-videobirthday__amwPjAcoC8-shot14_0/img15.jpg,Images/video-storytelling-videobirthday__amwPjAcoC8-shot14_0/img16.jpg,Images/video-storytelling-videobirthday__amwPjAcoC8-shot14_0/img18.jpg,Images/video-storytelling-videobirthday__amwPjAcoC8-shot14_0/img21.jpg,Images/video-storytelling-videobirthday__amwPjAcoC8-shot14_0/img23.jpg,Images/video-storytelling-videobirthday__amwPjAcoC8-shot14_0/img26.jpg,1600,1,0,2022-06-14_18h06.25.074,annotation,2021.2.3,Linux x86_64,90.14693951,,
,,,,,,,,,,,,,,,,,-0.246527778,-0.117361122,1,0,0,image_6,0,60,60,24,1,1925,A bird perched on top of a bird feeder.,M,0,4,MSR-VTT-videoTestVideo_video7059-shot1_1,Images/MSR-VTT-videoTestVideo_video7059-shot1_1/img413.jpg,Images/MSR-VTT-videoTestVideo_video7059-shot1_1/img426.jpg,Images/MSR-VTT-videoTestVideo_video7059-shot1_1/img440.jpg,Images/MSR-VTT-videoTestVideo_video7059-shot1_1/img449.jpg,Images/MSR-VTT-videoTestVideo_video7059-shot1_1/img467.jpg,Images/MSR-VTT-videoTestVideo_video7059-shot1_1/img487.jpg,Images/MSR-VTT-videoTestVideo_video7059-shot1_1/img496.jpg,Images/MSR-VTT-videoTestVideo_video7059-shot1_1/img500.jpg,Images/MSR-VTT-videoTestVideo_video7059-shot1_1/img525.jpg,Images/MSR-VTT-videoTestVideo_video7059-shot1_1/img540.jpg,1286,1,0,2022-06-14_18h06.25.074,annotation,2021.2.3,Linux x86_64,90.14693951,,
,,,,,,,,,,,,,,,,,0.193055577,-0.109722243,1,0,0,image_8,0,61,61,11,1,1783,A person holding a container of food in front of them.,M,0,3,MSR-VTT-videoTestVideo_video9556-shot3_2,Images/MSR-VTT-videoTestVideo_video9556-shot3_2/img132.jpg,Images/MSR-VTT-videoTestVideo_video9556-shot3_2/img135.jpg,Images/MSR-VTT-videoTestVideo_video9556-shot3_2/img141.jpg,Images/MSR-VTT-videoTestVideo_video9556-shot3_2/img146.jpg,Images/MSR-VTT-videoTestVideo_video9556-shot3_2/img151.jpg,Images/MSR-VTT-videoTestVideo_video9556-shot3_2/img153.jpg,Images/MSR-VTT-videoTestVideo_video9556-shot3_2/img160.jpg,Images/MSR-VTT-videoTestVideo_video9556-shot3_2/img168.jpg,Images/MSR-VTT-videoTestVideo_video9556-shot3_2/img170.jpg,Images/MSR-VTT-videoTestVideo_video9556-shot3_2/img173.jpg,1987,1,0,2022-06-14_18h06.25.074,annotation,2021.2.3,Linux x86_64,90.14693951,,
,,,,,,,,,,,,,,,,,-0.016666677,0.184722212,1,0,0,image_2,0,62,62,16,1,599,he is facing away from the camera and his arms are up,H,1,2,MSR-VTT-videoTestVideo_video8700-shot3_2,Images/MSR-VTT-videoTestVideo_video8700-shot3_2/img143.jpg,Images/MSR-VTT-videoTestVideo_video8700-shot3_2/img146.jpg,Images/MSR-VTT-videoTestVideo_video8700-shot3_2/img152.jpg,Images/MSR-VTT-videoTestVideo_video8700-shot3_2/img157.jpg,Images/MSR-VTT-videoTestVideo_video8700-shot3_2/img162.jpg,Images/MSR-VTT-videoTestVideo_video8700-shot3_2/img168.jpg,Images/MSR-VTT-videoTestVideo_video8700-shot3_2/img172.jpg,Images/MSR-VTT-videoTestVideo_video8700-shot3_2/img178.jpg,Images/MSR-VTT-videoTestVideo_video8700-shot3_2/img182.jpg,Images/MSR-VTT-videoTestVideo_video8700-shot3_2/img186.jpg,1059,1,0,2022-06-14_18h06.25.074,annotation,2021.2.3,Linux x86_64,90.14693951,,
,,,,,,,,,,,,,,,,,,,,,,,,,,,,,,,,,,,,,,,,,,,,,,,2022-06-14_18h06.25.074,annotation,2021.2.3,Linux x86_64,90.14693951,space,31.9945
