mturk,key_resp_2.keys,key_resp_2.rt,key_resp_3.keys,key_resp_3.rt,mouse_2.x,mouse_2.y,mouse_2.leftButton,mouse_2.midButton,mouse_2.rightButton,mouse_2.clicked_name,key_resp_5.keys,key_resp_5.rt,key_resp.keys,key_resp.rt,key_resp_6.keys,key_resp_6.rt,mouse.x,mouse.y,mouse.leftButton,mouse.midButton,mouse.rightButton,mouse.clicked_name,trials.thisRepN,trials.thisTrialN,trials.thisN,trials.thisIndex,trials.ran,N,caption,class_caption,model_guessed,target_idx,image_set,img1,img2,img3,img4,img5,img6,img7,img8,img9,img10,Q_id,block,is_check,date,expName,psychopyVersion,OS,frameRate,key_resp_7.keys,key_resp_7.rt
9170939,space,2.4478,space,1.0576,0.282407407,0.103703704,1,0,0,ex4,space,2.0393,space,1.1597,space,1.1466,0.271296296,-0.157407407,1,0,0,image_8,0,0,0,49,1,1242,A person is pouring chocolate into a bowl.,M,0,1,YouCook-video0008-shot2_4,Images/YouCook-video0008-shot2_4/img629.jpg,Images/YouCook-video0008-shot2_4/img631.jpg,Images/YouCook-video0008-shot2_4/img634.jpg,Images/YouCook-video0008-shot2_4/img636.jpg,Images/YouCook-video0008-shot2_4/img639.jpg,Images/YouCook-video0008-shot2_4/img644.jpg,Images/YouCook-video0008-shot2_4/img645.jpg,Images/YouCook-video0008-shot2_4/img648.jpg,Images/YouCook-video0008-shot2_4/img657.jpg,Images/YouCook-video0008-shot2_4/img667.jpg,445,36,0,2022-06-16_24h08.39.890,annotation,2021.2.3,Win32,32.25910513,,
,,,,,,,,,,,,,,,,,-0.25,-0.22037037,1,0,0,image_6,0,1,1,12,1,187,"the girl in the back is walking towards left, the girl in the front has just passed her also walking to the left",H,0,6,MSR-VTT-videoTestVideo_video7476-shot1_6,Images/MSR-VTT-videoTestVideo_video7476-shot1_6/img211.jpg,Images/MSR-VTT-videoTestVideo_video7476-shot1_6/img213.jpg,Images/MSR-VTT-videoTestVideo_video7476-shot1_6/img215.jpg,Images/MSR-VTT-videoTestVideo_video7476-shot1_6/img218.jpg,Images/MSR-VTT-videoTestVideo_video7476-shot1_6/img222.jpg,Images/MSR-VTT-videoTestVideo_video7476-shot1_6/img225.jpg,Images/MSR-VTT-videoTestVideo_video7476-shot1_6/img228.jpg,Images/MSR-VTT-videoTestVideo_video7476-shot1_6/img233.jpg,Images/MSR-VTT-videoTestVideo_video7476-shot1_6/img236.jpg,Images/MSR-VTT-videoTestVideo_video7476-shot1_6/img238.jpg,1909,36,0,2022-06-16_24h08.39.890,annotation,2021.2.3,Win32,32.25910513,,
,,,,,,,,,,,,,,,,,-0.221296296,-0.162037037,1,0,0,image_6,0,2,2,54,1,1720,A photo of a kite flying in the sky.,M,0,6,MSR-VTT-videoTestVideo_video9955-shot1_1,Images/MSR-VTT-videoTestVideo_video9955-shot1_1/img78.jpg,Images/MSR-VTT-videoTestVideo_video9955-shot1_1/img95.jpg,Images/MSR-VTT-videoTestVideo_video9955-shot1_1/img98.jpg,Images/MSR-VTT-videoTestVideo_video9955-shot1_1/img100.jpg,Images/MSR-VTT-videoTestVideo_video9955-shot1_1/img103.jpg,Images/MSR-VTT-videoTestVideo_video9955-shot1_1/img108.jpg,Images/MSR-VTT-videoTestVideo_video9955-shot1_1/img111.jpg,Images/MSR-VTT-videoTestVideo_video9955-shot1_1/img114.jpg,Images/MSR-VTT-videoTestVideo_video9955-shot1_1/img117.jpg,Images/MSR-VTT-videoTestVideo_video9955-shot1_1/img122.jpg,1983,36,0,2022-06-16_24h08.39.890,annotation,2021.2.3,Win32,32.25910513,,
,,,,,,,,,,,,,,,,,-0.225,-0.119444444,1,0,0,image_6,0,3,3,5,1,1307,A group of people playing with a variety of kites.,M,0,5,MSR-VTT-videoTestVideo_video8588-shot1_2,Images/MSR-VTT-videoTestVideo_video8588-shot1_2/img204.jpg,Images/MSR-VTT-videoTestVideo_video8588-shot1_2/img217.jpg,Images/MSR-VTT-videoTestVideo_video8588-shot1_2/img221.jpg,Images/MSR-VTT-videoTestVideo_video8588-shot1_2/img225.jpg,Images/MSR-VTT-videoTestVideo_video8588-shot1_2/img230.jpg,Images/MSR-VTT-videoTestVideo_video8588-shot1_2/img235.jpg,Images/MSR-VTT-videoTestVideo_video8588-shot1_2/img242.jpg,Images/MSR-VTT-videoTestVideo_video8588-shot1_2/img248.jpg,Images/MSR-VTT-videoTestVideo_video8588-shot1_2/img252.jpg,Images/MSR-VTT-videoTestVideo_video8588-shot1_2/img267.jpg,994,36,0,2022-06-16_24h08.39.890,annotation,2021.2.3,Win32,32.25910513,,
,,,,,,,,,,,,,,,,,0.507407407,0.152777778,1,0,0,image_4,0,4,4,14,1,158,The very front of the white car is blocked by a tree,H,0,4,MSR-VTT-videoTestVideo_video7105-shot3_0,Images/MSR-VTT-videoTestVideo_video7105-shot3_0/img0.jpg,Images/MSR-VTT-videoTestVideo_video7105-shot3_0/img1.jpg,Images/MSR-VTT-videoTestVideo_video7105-shot3_0/img8.jpg,Images/MSR-VTT-videoTestVideo_video7105-shot3_0/img11.jpg,Images/MSR-VTT-videoTestVideo_video7105-shot3_0/img16.jpg,Images/MSR-VTT-videoTestVideo_video7105-shot3_0/img19.jpg,Images/MSR-VTT-videoTestVideo_video7105-shot3_0/img23.jpg,Images/MSR-VTT-videoTestVideo_video7105-shot3_0/img28.jpg,Images/MSR-VTT-videoTestVideo_video7105-shot3_0/img32.jpg,Images/MSR-VTT-videoTestVideo_video7105-shot3_0/img36.jpg,230,36,0,2022-06-16_24h08.39.890,annotation,2021.2.3,Win32,32.25910513,,
,,,,,,,,,,,,,,,,,-0.275,0.128703704,1,0,0,image_1,0,5,5,24,1,109,Only the woman in pink and the woman in gray are in the picture.,H,0,2,MSR-VTT-videoTestVideo_video9969-shot1_0,Images/MSR-VTT-videoTestVideo_video9969-shot1_0/img0.jpg,Images/MSR-VTT-videoTestVideo_video9969-shot1_0/img1.jpg,Images/MSR-VTT-videoTestVideo_video9969-shot1_0/img2.jpg,Images/MSR-VTT-videoTestVideo_video9969-shot1_0/img4.jpg,Images/MSR-VTT-videoTestVideo_video9969-shot1_0/img5.jpg,Images/MSR-VTT-videoTestVideo_video9969-shot1_0/img18.jpg,Images/MSR-VTT-videoTestVideo_video9969-shot1_0/img41.jpg,Images/MSR-VTT-videoTestVideo_video9969-shot1_0/img60.jpg,Images/MSR-VTT-videoTestVideo_video9969-shot1_0/img108.jpg,Images/MSR-VTT-videoTestVideo_video9969-shot1_0/img146.jpg,1554,36,0,2022-06-16_24h08.39.890,annotation,2021.2.3,Win32,32.25910513,,
,,,,,,,,,,,,,,,,,-0.466666667,-0.166666667,1,0,0,image_5,0,6,6,59,1,1,The only picture of a hawk.  It is looking to the left.  You see lots of branches and darker blue sky. ,H,,5,open-images-958_686caac9c5b322e7,Checks/check2/open-images-2603_1b5152f01f0093e7img3.jpg,Checks/check2/open-images-1836_069810916ce5d675img8.jpg,Checks/check2/open-images-974_0748fdedc4bf8b7bimg2.jpg,Checks/check2/open-images-617_01fb725fb1aa7b04img6.jpg,Checks/check2/open-images-507_047769e1f977cd97img2.jpg,Checks/check2/open-images-958_686caac9c5b322e7img5.jpg,Checks/check2/open-images-1278_21851d9bf5dc05c9img7.jpg,Checks/check2/open-images-2424_05f04546e01499f2img0.jpg,Checks/check2/open-images-1529_1442b11a10a6aeadimg3.jpg,Checks/check2/open-images-514_2c523ddedc2561d4img1.jpg,,,1,2022-06-16_24h08.39.890,annotation,2021.2.3,Win32,32.25910513,,
,,,,,,,,,,,,,,,,,0.244444444,0.162962963,1,0,0,image_3,0,7,7,22,1,1881,A person holding a piece of cake on a plate.,M,0,5,video-storytelling-videobirthday_fwpYnUDbusw-shot63_5,Images/video-storytelling-videobirthday_fwpYnUDbusw-shot63_5/img193.jpg,Images/video-storytelling-videobirthday_fwpYnUDbusw-shot63_5/img199.jpg,Images/video-storytelling-videobirthday_fwpYnUDbusw-shot63_5/img205.jpg,Images/video-storytelling-videobirthday_fwpYnUDbusw-shot63_5/img233.jpg,Images/video-storytelling-videobirthday_fwpYnUDbusw-shot63_5/img235.jpg,Images/video-storytelling-videobirthday_fwpYnUDbusw-shot63_5/img240.jpg,Images/video-storytelling-videobirthday_fwpYnUDbusw-shot63_5/img245.jpg,Images/video-storytelling-videobirthday_fwpYnUDbusw-shot63_5/img251.jpg,Images/video-storytelling-videobirthday_fwpYnUDbusw-shot63_5/img255.jpg,Images/video-storytelling-videobirthday_fwpYnUDbusw-shot63_5/img270.jpg,1766,36,0,2022-06-16_24h08.39.890,annotation,2021.2.3,Win32,32.25910513,,
,,,,,,,,,,,,,,,,,0.305555556,-0.180555556,1,0,0,image_8,0,8,8,3,1,205,There are two lines of white text that is still pretty faint at the bottom of the image.  There are small slivers of black seen in the upper left and lower left of the image. ,H,0,7,MSR-VTT-videoTestVideo_video9409-shot1_0,Images/MSR-VTT-videoTestVideo_video9409-shot1_0/img0.jpg,Images/MSR-VTT-videoTestVideo_video9409-shot1_0/img5.jpg,Images/MSR-VTT-videoTestVideo_video9409-shot1_0/img15.jpg,Images/MSR-VTT-videoTestVideo_video9409-shot1_0/img26.jpg,Images/MSR-VTT-videoTestVideo_video9409-shot1_0/img42.jpg,Images/MSR-VTT-videoTestVideo_video9409-shot1_0/img64.jpg,Images/MSR-VTT-videoTestVideo_video9409-shot1_0/img97.jpg,Images/MSR-VTT-videoTestVideo_video9409-shot1_0/img112.jpg,Images/MSR-VTT-videoTestVideo_video9409-shot1_0/img128.jpg,Images/MSR-VTT-videoTestVideo_video9409-shot1_0/img206.jpg,84,36,0,2022-06-16_24h08.39.890,annotation,2021.2.3,Win32,32.25910513,,
,,,,,,,,,,,,,,,,,0.012037037,0.089814815,1,0,0,image_2,0,9,9,27,1,1062,A young girl holding onto a pink baseball bat.,M,0,2,MSR-VTT-videoTestVideo_video7170-shot3_0,Images/MSR-VTT-videoTestVideo_video7170-shot3_0/img0.jpg,Images/MSR-VTT-videoTestVideo_video7170-shot3_0/img6.jpg,Images/MSR-VTT-videoTestVideo_video7170-shot3_0/img12.jpg,Images/MSR-VTT-videoTestVideo_video7170-shot3_0/img15.jpg,Images/MSR-VTT-videoTestVideo_video7170-shot3_0/img20.jpg,Images/MSR-VTT-videoTestVideo_video7170-shot3_0/img27.jpg,Images/MSR-VTT-videoTestVideo_video7170-shot3_0/img43.jpg,Images/MSR-VTT-videoTestVideo_video7170-shot3_0/img52.jpg,Images/MSR-VTT-videoTestVideo_video7170-shot3_0/img56.jpg,Images/MSR-VTT-videoTestVideo_video7170-shot3_0/img64.jpg,482,36,0,2022-06-16_24h08.39.890,annotation,2021.2.3,Win32,32.25910513,,
,,,,,,,,,,,,,,,,,0.559259259,0.117592593,1,0,0,image_4,0,10,10,8,1,1082,A blurry image of a person standing in front of a large screen.,M,0,4,MSR-VTT-videoTestVideo_video7522-shot8_0,Images/MSR-VTT-videoTestVideo_video7522-shot8_0/img0.jpg,Images/MSR-VTT-videoTestVideo_video7522-shot8_0/img1.jpg,Images/MSR-VTT-videoTestVideo_video7522-shot8_0/img2.jpg,Images/MSR-VTT-videoTestVideo_video7522-shot8_0/img3.jpg,Images/MSR-VTT-videoTestVideo_video7522-shot8_0/img4.jpg,Images/MSR-VTT-videoTestVideo_video7522-shot8_0/img5.jpg,Images/MSR-VTT-videoTestVideo_video7522-shot8_0/img6.jpg,Images/MSR-VTT-videoTestVideo_video7522-shot8_0/img7.jpg,Images/MSR-VTT-videoTestVideo_video7522-shot8_0/img8.jpg,Images/MSR-VTT-videoTestVideo_video7522-shot8_0/img9.jpg,1047,36,0,2022-06-16_24h08.39.890,annotation,2021.2.3,Win32,32.25910513,,
,,,,,,,,,,,,,,,,,0.259259259,0.1,1,0,0,image_3,0,11,11,34,1,1831,a close up of a slice of broccoli on a plate.,M,1,4,YouCook-video0035-shot9_2,Images/YouCook-video0035-shot9_2/img270.jpg,Images/YouCook-video0035-shot9_2/img306.jpg,Images/YouCook-video0035-shot9_2/img308.jpg,Images/YouCook-video0035-shot9_2/img313.jpg,Images/YouCook-video0035-shot9_2/img318.jpg,Images/YouCook-video0035-shot9_2/img323.jpg,Images/YouCook-video0035-shot9_2/img334.jpg,Images/YouCook-video0035-shot9_2/img336.jpg,Images/YouCook-video0035-shot9_2/img359.jpg,Images/YouCook-video0035-shot9_2/img376.jpg,856,36,0,2022-06-16_24h08.39.890,annotation,2021.2.3,Win32,32.25910513,,
,,,,,,,,,,,,,,,,,-0.496296296,0.164814815,1,0,0,image_0,0,12,12,15,1,1107,A close up of a person holding a baby on a bed.,M,1,1,MSR-VTT-videoTestVideo_video9672-shot1_1,Images/MSR-VTT-videoTestVideo_video9672-shot1_1/img53.jpg,Images/MSR-VTT-videoTestVideo_video9672-shot1_1/img64.jpg,Images/MSR-VTT-videoTestVideo_video9672-shot1_1/img65.jpg,Images/MSR-VTT-videoTestVideo_video9672-shot1_1/img69.jpg,Images/MSR-VTT-videoTestVideo_video9672-shot1_1/img78.jpg,Images/MSR-VTT-videoTestVideo_video9672-shot1_1/img81.jpg,Images/MSR-VTT-videoTestVideo_video9672-shot1_1/img82.jpg,Images/MSR-VTT-videoTestVideo_video9672-shot1_1/img88.jpg,Images/MSR-VTT-videoTestVideo_video9672-shot1_1/img95.jpg,Images/MSR-VTT-videoTestVideo_video9672-shot1_1/img100.jpg,195,36,0,2022-06-16_24h08.39.890,annotation,2021.2.3,Win32,32.25910513,,
,,,,,,,,,,,,,,,,,-0.262037037,0.119444444,1,0,0,image_1,0,13,13,48,1,167,The woman is looking down at her hands near her chest and her mouth is slightly open.  The right hand is higher than the left hand and her right thumb is near her neck. ,H,0,0,MSR-VTT-videoTestVideo_video7405-shot6_0,Images/MSR-VTT-videoTestVideo_video7405-shot6_0/img0.jpg,Images/MSR-VTT-videoTestVideo_video7405-shot6_0/img6.jpg,Images/MSR-VTT-videoTestVideo_video7405-shot6_0/img33.jpg,Images/MSR-VTT-videoTestVideo_video7405-shot6_0/img41.jpg,Images/MSR-VTT-videoTestVideo_video7405-shot6_0/img48.jpg,Images/MSR-VTT-videoTestVideo_video7405-shot6_0/img57.jpg,Images/MSR-VTT-videoTestVideo_video7405-shot6_0/img67.jpg,Images/MSR-VTT-videoTestVideo_video7405-shot6_0/img104.jpg,Images/MSR-VTT-videoTestVideo_video7405-shot6_0/img123.jpg,Images/MSR-VTT-videoTestVideo_video7405-shot6_0/img132.jpg,710,36,0,2022-06-16_24h08.39.890,annotation,2021.2.3,Win32,32.25910513,,
,,,,,,,,,,,,,,,,,0.259259259,0.187962963,1,0,0,image_3,0,14,14,32,1,936,the grey objects are angled slightly to the right and no hand is visible,H,0,3,MSR-VTT-videoTestVideo_video9135-shot0_0,Images/MSR-VTT-videoTestVideo_video9135-shot0_0/img0.jpg,Images/MSR-VTT-videoTestVideo_video9135-shot0_0/img10.jpg,Images/MSR-VTT-videoTestVideo_video9135-shot0_0/img23.jpg,Images/MSR-VTT-videoTestVideo_video9135-shot0_0/img55.jpg,Images/MSR-VTT-videoTestVideo_video9135-shot0_0/img66.jpg,Images/MSR-VTT-videoTestVideo_video9135-shot0_0/img72.jpg,Images/MSR-VTT-videoTestVideo_video9135-shot0_0/img128.jpg,Images/MSR-VTT-videoTestVideo_video9135-shot0_0/img166.jpg,Images/MSR-VTT-videoTestVideo_video9135-shot0_0/img171.jpg,Images/MSR-VTT-videoTestVideo_video9135-shot0_0/img173.jpg,1088,36,0,2022-06-16_24h08.39.890,annotation,2021.2.3,Win32,32.25910513,,
,,,,,,,,,,,,,,,,,0.49537037,0.109259259,1,0,0,image_4,0,15,15,39,1,891,The very bottom of the fire extinguisher on the floor is cut off on the bottom of the image. You can see the entire yellow tag on the fire extinguisher. ,H,0,5,MSR-VTT-videoTestVideo_video9236-shot1_0,Images/MSR-VTT-videoTestVideo_video9236-shot1_0/img0.jpg,Images/MSR-VTT-videoTestVideo_video9236-shot1_0/img5.jpg,Images/MSR-VTT-videoTestVideo_video9236-shot1_0/img12.jpg,Images/MSR-VTT-videoTestVideo_video9236-shot1_0/img14.jpg,Images/MSR-VTT-videoTestVideo_video9236-shot1_0/img19.jpg,Images/MSR-VTT-videoTestVideo_video9236-shot1_0/img24.jpg,Images/MSR-VTT-videoTestVideo_video9236-shot1_0/img28.jpg,Images/MSR-VTT-videoTestVideo_video9236-shot1_0/img33.jpg,Images/MSR-VTT-videoTestVideo_video9236-shot1_0/img41.jpg,Images/MSR-VTT-videoTestVideo_video9236-shot1_0/img56.jpg,841,36,0,2022-06-16_24h08.39.890,annotation,2021.2.3,Win32,32.25910513,,
,,,,,,,,,,,,,,,,,0.539814815,-0.175,1,0,0,image_9,0,16,16,52,1,2008,A group of people sitting at a table.,M,0,6,video-storytelling-videocamping_dBXYM3dQTSo-shot83_3,Images/video-storytelling-videocamping_dBXYM3dQTSo-shot83_3/img202.jpg,Images/video-storytelling-videocamping_dBXYM3dQTSo-shot83_3/img225.jpg,Images/video-storytelling-videocamping_dBXYM3dQTSo-shot83_3/img237.jpg,Images/video-storytelling-videocamping_dBXYM3dQTSo-shot83_3/img242.jpg,Images/video-storytelling-videocamping_dBXYM3dQTSo-shot83_3/img254.jpg,Images/video-storytelling-videocamping_dBXYM3dQTSo-shot83_3/img273.jpg,Images/video-storytelling-videocamping_dBXYM3dQTSo-shot83_3/img311.jpg,Images/video-storytelling-videocamping_dBXYM3dQTSo-shot83_3/img322.jpg,Images/video-storytelling-videocamping_dBXYM3dQTSo-shot83_3/img326.jpg,Images/video-storytelling-videocamping_dBXYM3dQTSo-shot83_3/img351.jpg,1651,36,0,2022-06-16_24h08.39.890,annotation,2021.2.3,Win32,32.25910513,,
,,,,,,,,,,,,,,,,,0.250925926,0.108333333,1,0,0,image_3,0,17,17,13,1,186,The Bryan De Silva is least visible before it transitions to a different text.,H,0,3,MSR-VTT-videoTestVideo_video8831-shot4_0,Images/MSR-VTT-videoTestVideo_video8831-shot4_0/img0.jpg,Images/MSR-VTT-videoTestVideo_video8831-shot4_0/img1.jpg,Images/MSR-VTT-videoTestVideo_video8831-shot4_0/img2.jpg,Images/MSR-VTT-videoTestVideo_video8831-shot4_0/img3.jpg,Images/MSR-VTT-videoTestVideo_video8831-shot4_0/img5.jpg,Images/MSR-VTT-videoTestVideo_video8831-shot4_0/img6.jpg,Images/MSR-VTT-videoTestVideo_video8831-shot4_0/img8.jpg,Images/MSR-VTT-videoTestVideo_video8831-shot4_0/img16.jpg,Images/MSR-VTT-videoTestVideo_video8831-shot4_0/img19.jpg,Images/MSR-VTT-videoTestVideo_video8831-shot4_0/img21.jpg,2067,36,0,2022-06-16_24h08.39.890,annotation,2021.2.3,Win32,32.25910513,,
,,,,,,,,,,,,,,,,,-0.301851852,0.161111111,1,0,0,image_1,0,18,18,30,1,427,The person's face that has a blue shirt on can no longer be seen.  She is blocking a lot of the person behind her but you can still see a portion of her face. ,H,1,4,video-storytelling-videocamping_1OzbiB1TIWI-shot14_6,Images/video-storytelling-videocamping_1OzbiB1TIWI-shot14_6/img922.jpg,Images/video-storytelling-videocamping_1OzbiB1TIWI-shot14_6/img930.jpg,Images/video-storytelling-videocamping_1OzbiB1TIWI-shot14_6/img932.jpg,Images/video-storytelling-videocamping_1OzbiB1TIWI-shot14_6/img943.jpg,Images/video-storytelling-videocamping_1OzbiB1TIWI-shot14_6/img949.jpg,Images/video-storytelling-videocamping_1OzbiB1TIWI-shot14_6/img955.jpg,Images/video-storytelling-videocamping_1OzbiB1TIWI-shot14_6/img958.jpg,Images/video-storytelling-videocamping_1OzbiB1TIWI-shot14_6/img967.jpg,Images/video-storytelling-videocamping_1OzbiB1TIWI-shot14_6/img969.jpg,Images/video-storytelling-videocamping_1OzbiB1TIWI-shot14_6/img973.jpg,1377,36,0,2022-06-16_24h08.39.890,annotation,2021.2.3,Win32,32.25910513,,
,,,,,,,,,,,,,,,,,-0.009259259,-0.147222222,1,0,0,image_7,0,19,19,0,1,849,Several young girls are trying to eat something tied on a string. A girl in a blue jacket seems to have succeeded and is standing back with something in her mouth and is starting to raise her right arm.  ,H,0,9,video-storytelling-videocamping_1OzbiB1TIWI-shot14_4,Images/video-storytelling-videocamping_1OzbiB1TIWI-shot14_4/img745.jpg,Images/video-storytelling-videocamping_1OzbiB1TIWI-shot14_4/img748.jpg,Images/video-storytelling-videocamping_1OzbiB1TIWI-shot14_4/img758.jpg,Images/video-storytelling-videocamping_1OzbiB1TIWI-shot14_4/img767.jpg,Images/video-storytelling-videocamping_1OzbiB1TIWI-shot14_4/img808.jpg,Images/video-storytelling-videocamping_1OzbiB1TIWI-shot14_4/img815.jpg,Images/video-storytelling-videocamping_1OzbiB1TIWI-shot14_4/img825.jpg,Images/video-storytelling-videocamping_1OzbiB1TIWI-shot14_4/img835.jpg,Images/video-storytelling-videocamping_1OzbiB1TIWI-shot14_4/img842.jpg,Images/video-storytelling-videocamping_1OzbiB1TIWI-shot14_4/img845.jpg,1692,36,0,2022-06-16_24h08.39.890,annotation,2021.2.3,Win32,32.25910513,,
,,,,,,,,,,,,,,,,,0.54537037,0.136111111,1,0,0,image_4,0,20,20,1,1,1161,A man holding a video game controller in his hand.,M,1,3,MSR-VTT-videoTestVideo_video9580-shot1_0,Images/MSR-VTT-videoTestVideo_video9580-shot1_0/img1.jpg,Images/MSR-VTT-videoTestVideo_video9580-shot1_0/img10.jpg,Images/MSR-VTT-videoTestVideo_video9580-shot1_0/img32.jpg,Images/MSR-VTT-videoTestVideo_video9580-shot1_0/img71.jpg,Images/MSR-VTT-videoTestVideo_video9580-shot1_0/img73.jpg,Images/MSR-VTT-videoTestVideo_video9580-shot1_0/img78.jpg,Images/MSR-VTT-videoTestVideo_video9580-shot1_0/img101.jpg,Images/MSR-VTT-videoTestVideo_video9580-shot1_0/img105.jpg,Images/MSR-VTT-videoTestVideo_video9580-shot1_0/img111.jpg,Images/MSR-VTT-videoTestVideo_video9580-shot1_0/img115.jpg,753,36,0,2022-06-16_24h08.39.890,annotation,2021.2.3,Win32,32.25910513,,
,,,,,,,,,,,,,,,,,0.230555556,0.194444444,1,0,0,image_3,0,21,21,2,1,64,The man's head is moving upward slightly causing his image to be very blurry. ,H,0,3,MSR-VTT-videoTestVideo_video9241-shot1_0,Images/MSR-VTT-videoTestVideo_video9241-shot1_0/img0.jpg,Images/MSR-VTT-videoTestVideo_video9241-shot1_0/img3.jpg,Images/MSR-VTT-videoTestVideo_video9241-shot1_0/img10.jpg,Images/MSR-VTT-videoTestVideo_video9241-shot1_0/img14.jpg,Images/MSR-VTT-videoTestVideo_video9241-shot1_0/img16.jpg,Images/MSR-VTT-videoTestVideo_video9241-shot1_0/img23.jpg,Images/MSR-VTT-videoTestVideo_video9241-shot1_0/img27.jpg,Images/MSR-VTT-videoTestVideo_video9241-shot1_0/img40.jpg,Images/MSR-VTT-videoTestVideo_video9241-shot1_0/img52.jpg,Images/MSR-VTT-videoTestVideo_video9241-shot1_0/img56.jpg,15,36,0,2022-06-16_24h08.39.890,annotation,2021.2.3,Win32,32.25910513,,
,,,,,,,,,,,,,,,,,0.186111111,0.150925926,1,0,0,image_3,0,22,22,16,1,1563,A man with a pair of chopsticks in his hand.,M,0,6,video-storytelling-videocamping_EytINruY3-U-shot47_0,Images/video-storytelling-videocamping_EytINruY3-U-shot47_0/img0.jpg,Images/video-storytelling-videocamping_EytINruY3-U-shot47_0/img8.jpg,Images/video-storytelling-videocamping_EytINruY3-U-shot47_0/img14.jpg,Images/video-storytelling-videocamping_EytINruY3-U-shot47_0/img29.jpg,Images/video-storytelling-videocamping_EytINruY3-U-shot47_0/img33.jpg,Images/video-storytelling-videocamping_EytINruY3-U-shot47_0/img37.jpg,Images/video-storytelling-videocamping_EytINruY3-U-shot47_0/img39.jpg,Images/video-storytelling-videocamping_EytINruY3-U-shot47_0/img42.jpg,Images/video-storytelling-videocamping_EytINruY3-U-shot47_0/img47.jpg,Images/video-storytelling-videocamping_EytINruY3-U-shot47_0/img51.jpg,1454,36,0,2022-06-16_24h08.39.890,annotation,2021.2.3,Win32,32.25910513,,
,,,,,,,,,,,,,,,,,-0.510185185,-0.147222222,1,0,0,image_5,0,23,23,42,1,706,Swimmer is completely vertical. Horizontal swimmer is barely visible.,H,0,5,MSR-VTT-videoTestVideo_video9830-shot1_0,Images/MSR-VTT-videoTestVideo_video9830-shot1_0/img0.jpg,Images/MSR-VTT-videoTestVideo_video9830-shot1_0/img7.jpg,Images/MSR-VTT-videoTestVideo_video9830-shot1_0/img11.jpg,Images/MSR-VTT-videoTestVideo_video9830-shot1_0/img20.jpg,Images/MSR-VTT-videoTestVideo_video9830-shot1_0/img24.jpg,Images/MSR-VTT-videoTestVideo_video9830-shot1_0/img30.jpg,Images/MSR-VTT-videoTestVideo_video9830-shot1_0/img35.jpg,Images/MSR-VTT-videoTestVideo_video9830-shot1_0/img40.jpg,Images/MSR-VTT-videoTestVideo_video9830-shot1_0/img43.jpg,Images/MSR-VTT-videoTestVideo_video9830-shot1_0/img44.jpg,1049,36,0,2022-06-16_24h08.39.890,annotation,2021.2.3,Win32,32.25910513,,
,,,,,,,,,,,,,,,,,0.47037037,-0.156481481,1,0,0,image_9,0,24,24,26,1,218,"The black curved line that is present in all pictures on the left hand side of the picture is cutting right down the middle of the red, yellow, and white object.  The faint rectangle in the lower center is still all the way pointing into the water. ",H,0,5,MSR-VTT-videoTestVideo_video8006-shot1_1,Images/MSR-VTT-videoTestVideo_video8006-shot1_1/img71.jpg,Images/MSR-VTT-videoTestVideo_video8006-shot1_1/img77.jpg,Images/MSR-VTT-videoTestVideo_video8006-shot1_1/img86.jpg,Images/MSR-VTT-videoTestVideo_video8006-shot1_1/img196.jpg,Images/MSR-VTT-videoTestVideo_video8006-shot1_1/img236.jpg,Images/MSR-VTT-videoTestVideo_video8006-shot1_1/img250.jpg,Images/MSR-VTT-videoTestVideo_video8006-shot1_1/img261.jpg,Images/MSR-VTT-videoTestVideo_video8006-shot1_1/img282.jpg,Images/MSR-VTT-videoTestVideo_video8006-shot1_1/img314.jpg,Images/MSR-VTT-videoTestVideo_video8006-shot1_1/img326.jpg,1112,36,0,2022-06-16_24h08.39.890,annotation,2021.2.3,Win32,32.25910513,,
,,,,,,,,,,,,,,,,,0.260185185,0.169444444,1,0,0,image_3,0,25,25,11,1,673,There is a red devil looking character in the top center of the image.  There are some white arrow objects that are flying away from it. ,H,0,4,MSR-VTT-videoTestVideo_video9842-shot1_0,Images/MSR-VTT-videoTestVideo_video9842-shot1_0/img0.jpg,Images/MSR-VTT-videoTestVideo_video9842-shot1_0/img23.jpg,Images/MSR-VTT-videoTestVideo_video9842-shot1_0/img118.jpg,Images/MSR-VTT-videoTestVideo_video9842-shot1_0/img121.jpg,Images/MSR-VTT-videoTestVideo_video9842-shot1_0/img129.jpg,Images/MSR-VTT-videoTestVideo_video9842-shot1_0/img137.jpg,Images/MSR-VTT-videoTestVideo_video9842-shot1_0/img172.jpg,Images/MSR-VTT-videoTestVideo_video9842-shot1_0/img204.jpg,Images/MSR-VTT-videoTestVideo_video9842-shot1_0/img224.jpg,Images/MSR-VTT-videoTestVideo_video9842-shot1_0/img244.jpg,741,36,0,2022-06-16_24h08.39.890,annotation,2021.2.3,Win32,32.25910513,,
,,,,,,,,,,,,,,,,,-0.451851852,-0.198148148,1,0,0,image_5,0,26,26,28,1,1119,A digital image of a woman sitting next to a digital image of a billboard.,M,1,2,MSR-VTT-videoTestVideo_video7803-shot2_0,Images/MSR-VTT-videoTestVideo_video7803-shot2_0/img0.jpg,Images/MSR-VTT-videoTestVideo_video7803-shot2_0/img3.jpg,Images/MSR-VTT-videoTestVideo_video7803-shot2_0/img7.jpg,Images/MSR-VTT-videoTestVideo_video7803-shot2_0/img11.jpg,Images/MSR-VTT-videoTestVideo_video7803-shot2_0/img29.jpg,Images/MSR-VTT-videoTestVideo_video7803-shot2_0/img46.jpg,Images/MSR-VTT-videoTestVideo_video7803-shot2_0/img48.jpg,Images/MSR-VTT-videoTestVideo_video7803-shot2_0/img50.jpg,Images/MSR-VTT-videoTestVideo_video7803-shot2_0/img69.jpg,Images/MSR-VTT-videoTestVideo_video7803-shot2_0/img72.jpg,887,36,0,2022-06-16_24h08.39.890,annotation,2021.2.3,Win32,32.25910513,,
,,,,,,,,,,,,,,,,,-0.467592593,-0.175925926,1,0,0,image_5,0,27,27,43,1,55,"The image is slightly double-exposed, so the central woman appears to have a big pale nose.",H,0,4,MSR-VTT-videoTestVideo_video8954-shot1_0,Images/MSR-VTT-videoTestVideo_video8954-shot1_0/img0.jpg,Images/MSR-VTT-videoTestVideo_video8954-shot1_0/img2.jpg,Images/MSR-VTT-videoTestVideo_video8954-shot1_0/img8.jpg,Images/MSR-VTT-videoTestVideo_video8954-shot1_0/img15.jpg,Images/MSR-VTT-videoTestVideo_video8954-shot1_0/img20.jpg,Images/MSR-VTT-videoTestVideo_video8954-shot1_0/img21.jpg,Images/MSR-VTT-videoTestVideo_video8954-shot1_0/img22.jpg,Images/MSR-VTT-videoTestVideo_video8954-shot1_0/img24.jpg,Images/MSR-VTT-videoTestVideo_video8954-shot1_0/img26.jpg,Images/MSR-VTT-videoTestVideo_video8954-shot1_0/img27.jpg,134,36,0,2022-06-16_24h08.39.890,annotation,2021.2.3,Win32,32.25910513,,
,,,,,,,,,,,,,,,,,0.043518519,-0.159259259,1,0,0,image_7,0,28,28,31,1,1170,A couple of women sitting on a bench in front of a car.,M,0,7,video-storytelling-videocamping_1OzbiB1TIWI-shot43_14,Images/video-storytelling-videocamping_1OzbiB1TIWI-shot43_14/img737.jpg,Images/video-storytelling-videocamping_1OzbiB1TIWI-shot43_14/img738.jpg,Images/video-storytelling-videocamping_1OzbiB1TIWI-shot43_14/img743.jpg,Images/video-storytelling-videocamping_1OzbiB1TIWI-shot43_14/img745.jpg,Images/video-storytelling-videocamping_1OzbiB1TIWI-shot43_14/img746.jpg,Images/video-storytelling-videocamping_1OzbiB1TIWI-shot43_14/img748.jpg,Images/video-storytelling-videocamping_1OzbiB1TIWI-shot43_14/img751.jpg,Images/video-storytelling-videocamping_1OzbiB1TIWI-shot43_14/img753.jpg,Images/video-storytelling-videocamping_1OzbiB1TIWI-shot43_14/img756.jpg,Images/video-storytelling-videocamping_1OzbiB1TIWI-shot43_14/img758.jpg,130,36,0,2022-06-16_24h08.39.890,annotation,2021.2.3,Win32,32.25910513,,
,,,,,,,,,,,,,,,,,-0.053703704,0.206481481,1,0,0,image_2,0,29,29,61,1,3,A grey elephant with golden leaves on it. ,H,,2,open-images-1745_0ed62fe71809b2f5,Checks/check4/open-images-2609_3f72daeb23764ecfimg6.jpg,Checks/check4/open-images-1928_60679e2899870e08img1.jpg,Checks/check4/open-images-1745_0ed62fe71809b2f5img2.jpg,Checks/check4/open-images-1811_9ae6351c7f7565edimg0.jpg,Checks/check4/open-images-1721_6f04da11945ea492img3.jpg,Checks/check4/open-images-1907_5f9be3e4ea5e22c7img2.jpg,Checks/check4/open-images-580_0ddffb9c25141999img1.jpg,Checks/check4/open-images-2924_0645dcbcf998fed9img3.jpg,Checks/check4/open-images-869_856ecbcb5faf76e3img8.jpg,Checks/check4/open-images-250_02039517e63a91fbimg1.jpg,,,1,2022-06-16_24h08.39.890,annotation,2021.2.3,Win32,32.25910513,,
,,,,,,,,,,,,,,,,,0.232407407,-0.191666667,1,0,0,image_8,0,30,30,41,1,663,Just the top edge of the white lid of the coffee cup is visible in the bottom left.,H,0,6,MSR-VTT-videoTestVideo_video7510-shot1_1,Images/MSR-VTT-videoTestVideo_video7510-shot1_1/img152.jpg,Images/MSR-VTT-videoTestVideo_video7510-shot1_1/img153.jpg,Images/MSR-VTT-videoTestVideo_video7510-shot1_1/img155.jpg,Images/MSR-VTT-videoTestVideo_video7510-shot1_1/img157.jpg,Images/MSR-VTT-videoTestVideo_video7510-shot1_1/img161.jpg,Images/MSR-VTT-videoTestVideo_video7510-shot1_1/img163.jpg,Images/MSR-VTT-videoTestVideo_video7510-shot1_1/img168.jpg,Images/MSR-VTT-videoTestVideo_video7510-shot1_1/img174.jpg,Images/MSR-VTT-videoTestVideo_video7510-shot1_1/img182.jpg,Images/MSR-VTT-videoTestVideo_video7510-shot1_1/img185.jpg,1808,36,0,2022-06-16_24h08.39.890,annotation,2021.2.3,Win32,32.25910513,,
,,,,,,,,,,,,,,,,,-0.226851852,-0.197222222,1,0,0,image_6,0,31,31,18,1,1319,A couple of people on a surfboard in the water.,M,0,2,MSR-VTT-videoTestVideo_video8079-shot1_2,Images/MSR-VTT-videoTestVideo_video8079-shot1_2/img165.jpg,Images/MSR-VTT-videoTestVideo_video8079-shot1_2/img167.jpg,Images/MSR-VTT-videoTestVideo_video8079-shot1_2/img174.jpg,Images/MSR-VTT-videoTestVideo_video8079-shot1_2/img175.jpg,Images/MSR-VTT-videoTestVideo_video8079-shot1_2/img179.jpg,Images/MSR-VTT-videoTestVideo_video8079-shot1_2/img189.jpg,Images/MSR-VTT-videoTestVideo_video8079-shot1_2/img201.jpg,Images/MSR-VTT-videoTestVideo_video8079-shot1_2/img208.jpg,Images/MSR-VTT-videoTestVideo_video8079-shot1_2/img216.jpg,Images/MSR-VTT-videoTestVideo_video8079-shot1_2/img217.jpg,1750,36,0,2022-06-16_24h08.39.890,annotation,2021.2.3,Win32,32.25910513,,
,,,,,,,,,,,,,,,,,-0.480555556,0.096296296,1,0,0,image_0,0,32,32,57,1,133,The top left rectangle is completely black.,H,0,6,YouCook-video0008-shot10_1,Images/YouCook-video0008-shot10_1/img35.jpg,Images/YouCook-video0008-shot10_1/img40.jpg,Images/YouCook-video0008-shot10_1/img42.jpg,Images/YouCook-video0008-shot10_1/img46.jpg,Images/YouCook-video0008-shot10_1/img49.jpg,Images/YouCook-video0008-shot10_1/img64.jpg,Images/YouCook-video0008-shot10_1/img93.jpg,Images/YouCook-video0008-shot10_1/img96.jpg,Images/YouCook-video0008-shot10_1/img100.jpg,Images/YouCook-video0008-shot10_1/img108.jpg,95,36,0,2022-06-16_24h08.39.890,annotation,2021.2.3,Win32,32.25910513,,
,,,,,,,,,,,,,,,,,-0.260185185,-0.127777778,1,0,0,image_6,0,33,33,55,1,1736,A man standing in a kitchen with a cabinet full of pots and pans.,M,0,1,video-storytelling-videocamping_dBXYM3dQTSo-shot81_0,Images/video-storytelling-videocamping_dBXYM3dQTSo-shot81_0/img0.jpg,Images/video-storytelling-videocamping_dBXYM3dQTSo-shot81_0/img11.jpg,Images/video-storytelling-videocamping_dBXYM3dQTSo-shot81_0/img23.jpg,Images/video-storytelling-videocamping_dBXYM3dQTSo-shot81_0/img27.jpg,Images/video-storytelling-videocamping_dBXYM3dQTSo-shot81_0/img29.jpg,Images/video-storytelling-videocamping_dBXYM3dQTSo-shot81_0/img32.jpg,Images/video-storytelling-videocamping_dBXYM3dQTSo-shot81_0/img35.jpg,Images/video-storytelling-videocamping_dBXYM3dQTSo-shot81_0/img38.jpg,Images/video-storytelling-videocamping_dBXYM3dQTSo-shot81_0/img50.jpg,Images/video-storytelling-videocamping_dBXYM3dQTSo-shot81_0/img57.jpg,1163,36,0,2022-06-16_24h08.39.890,annotation,2021.2.3,Win32,32.25910513,,
,,,,,,,,,,,,,,,,,-0.074074074,-0.15,1,0,0,image_7,0,34,34,35,1,1504,A group of women standing next to each other.,M,0,1,video-storytelling-videocamping_1OzbiB1TIWI-shot40_4,Images/video-storytelling-videocamping_1OzbiB1TIWI-shot40_4/img228.jpg,Images/video-storytelling-videocamping_1OzbiB1TIWI-shot40_4/img229.jpg,Images/video-storytelling-videocamping_1OzbiB1TIWI-shot40_4/img231.jpg,Images/video-storytelling-videocamping_1OzbiB1TIWI-shot40_4/img233.jpg,Images/video-storytelling-videocamping_1OzbiB1TIWI-shot40_4/img234.jpg,Images/video-storytelling-videocamping_1OzbiB1TIWI-shot40_4/img235.jpg,Images/video-storytelling-videocamping_1OzbiB1TIWI-shot40_4/img236.jpg,Images/video-storytelling-videocamping_1OzbiB1TIWI-shot40_4/img237.jpg,Images/video-storytelling-videocamping_1OzbiB1TIWI-shot40_4/img239.jpg,Images/video-storytelling-videocamping_1OzbiB1TIWI-shot40_4/img242.jpg,258,36,0,2022-06-16_24h08.39.890,annotation,2021.2.3,Win32,32.25910513,,
,,,,,,,,,,,,,,,,,-0.425,-0.197222222,1,0,0,image_5,0,35,35,46,1,657,You can see the black cat's front paws for the first time. ,H,0,4,MSR-VTT-videoTestVideo_video8965-shot1_0,Images/MSR-VTT-videoTestVideo_video8965-shot1_0/img0.jpg,Images/MSR-VTT-videoTestVideo_video8965-shot1_0/img5.jpg,Images/MSR-VTT-videoTestVideo_video8965-shot1_0/img31.jpg,Images/MSR-VTT-videoTestVideo_video8965-shot1_0/img80.jpg,Images/MSR-VTT-videoTestVideo_video8965-shot1_0/img242.jpg,Images/MSR-VTT-videoTestVideo_video8965-shot1_0/img250.jpg,Images/MSR-VTT-videoTestVideo_video8965-shot1_0/img287.jpg,Images/MSR-VTT-videoTestVideo_video8965-shot1_0/img318.jpg,Images/MSR-VTT-videoTestVideo_video8965-shot1_0/img402.jpg,Images/MSR-VTT-videoTestVideo_video8965-shot1_0/img473.jpg,918,36,0,2022-06-16_24h08.39.890,annotation,2021.2.3,Win32,32.25910513,,
,,,,,,,,,,,,,,,,,-0.006481481,-0.188888889,1,0,0,image_7,0,36,36,25,1,574,The giant smiling monster fills the center of the picture. The icons of the four players are seen at the bottom. ,H,0,8,MSR-VTT-videoTestVideo_video8896-shot1_2,Images/MSR-VTT-videoTestVideo_video8896-shot1_2/img368.jpg,Images/MSR-VTT-videoTestVideo_video8896-shot1_2/img401.jpg,Images/MSR-VTT-videoTestVideo_video8896-shot1_2/img449.jpg,Images/MSR-VTT-videoTestVideo_video8896-shot1_2/img492.jpg,Images/MSR-VTT-videoTestVideo_video8896-shot1_2/img504.jpg,Images/MSR-VTT-videoTestVideo_video8896-shot1_2/img559.jpg,Images/MSR-VTT-videoTestVideo_video8896-shot1_2/img576.jpg,Images/MSR-VTT-videoTestVideo_video8896-shot1_2/img588.jpg,Images/MSR-VTT-videoTestVideo_video8896-shot1_2/img628.jpg,Images/MSR-VTT-videoTestVideo_video8896-shot1_2/img642.jpg,47,36,0,2022-06-16_24h08.39.890,annotation,2021.2.3,Win32,32.25910513,,
,,,,,,,,,,,,,,,,,-0.513888889,-0.202777778,1,0,0,image_5,0,37,37,47,1,830,"The man in the purple shirt has his hand hanging down, the man in the pink and black shirt is standing partially behind him with his hand over his chin looking at the man in purple.",H,0,4,MSR-VTT-videoTestVideo_video9602-shot1_0,Images/MSR-VTT-videoTestVideo_video9602-shot1_0/img7.jpg,Images/MSR-VTT-videoTestVideo_video9602-shot1_0/img31.jpg,Images/MSR-VTT-videoTestVideo_video9602-shot1_0/img52.jpg,Images/MSR-VTT-videoTestVideo_video9602-shot1_0/img121.jpg,Images/MSR-VTT-videoTestVideo_video9602-shot1_0/img154.jpg,Images/MSR-VTT-videoTestVideo_video9602-shot1_0/img245.jpg,Images/MSR-VTT-videoTestVideo_video9602-shot1_0/img281.jpg,Images/MSR-VTT-videoTestVideo_video9602-shot1_0/img332.jpg,Images/MSR-VTT-videoTestVideo_video9602-shot1_0/img355.jpg,Images/MSR-VTT-videoTestVideo_video9602-shot1_0/img360.jpg,1502,36,0,2022-06-16_24h08.39.890,annotation,2021.2.3,Win32,32.25910513,,
,,,,,,,,,,,,,,,,,0.249074074,-0.110185185,1,0,0,image_8,0,38,38,4,1,341,The girl is kissing the mule. The image is not blurry.,H,0,0,MSR-VTT-videoTestVideo_video8242-shot0_0,Images/MSR-VTT-videoTestVideo_video8242-shot0_0/img0.jpg,Images/MSR-VTT-videoTestVideo_video8242-shot0_0/img13.jpg,Images/MSR-VTT-videoTestVideo_video8242-shot0_0/img15.jpg,Images/MSR-VTT-videoTestVideo_video8242-shot0_0/img17.jpg,Images/MSR-VTT-videoTestVideo_video8242-shot0_0/img19.jpg,Images/MSR-VTT-videoTestVideo_video8242-shot0_0/img21.jpg,Images/MSR-VTT-videoTestVideo_video8242-shot0_0/img22.jpg,Images/MSR-VTT-videoTestVideo_video8242-shot0_0/img23.jpg,Images/MSR-VTT-videoTestVideo_video8242-shot0_0/img28.jpg,Images/MSR-VTT-videoTestVideo_video8242-shot0_0/img36.jpg,1435,36,0,2022-06-16_24h08.39.890,annotation,2021.2.3,Win32,32.25910513,,
,,,,,,,,,,,,,,,,,0.286111111,-0.138888889,1,0,0,image_8,0,39,39,38,1,741,You can see the back of a book but it is pretty blurry.  Both hands are still touching the book but only the right thumb is touching the back of the book. The hands are slightly blurry.  ,H,0,5,MSR-VTT-videoTestVideo_video7657-shot2_0,Images/MSR-VTT-videoTestVideo_video7657-shot2_0/img0.jpg,Images/MSR-VTT-videoTestVideo_video7657-shot2_0/img4.jpg,Images/MSR-VTT-videoTestVideo_video7657-shot2_0/img12.jpg,Images/MSR-VTT-videoTestVideo_video7657-shot2_0/img14.jpg,Images/MSR-VTT-videoTestVideo_video7657-shot2_0/img22.jpg,Images/MSR-VTT-videoTestVideo_video7657-shot2_0/img30.jpg,Images/MSR-VTT-videoTestVideo_video7657-shot2_0/img39.jpg,Images/MSR-VTT-videoTestVideo_video7657-shot2_0/img42.jpg,Images/MSR-VTT-videoTestVideo_video7657-shot2_0/img48.jpg,Images/MSR-VTT-videoTestVideo_video7657-shot2_0/img54.jpg,456,36,0,2022-06-16_24h08.39.890,annotation,2021.2.3,Win32,32.25910513,,
,,,,,,,,,,,,,,,,,0.493518519,0.115740741,1,0,0,image_4,0,40,40,9,1,1422,A man is playing with a Frisbee on a field.,M,1,1,MSR-VTT-videoTestVideo_video7776-shot0_1,Images/MSR-VTT-videoTestVideo_video7776-shot0_1/img171.jpg,Images/MSR-VTT-videoTestVideo_video7776-shot0_1/img193.jpg,Images/MSR-VTT-videoTestVideo_video7776-shot0_1/img202.jpg,Images/MSR-VTT-videoTestVideo_video7776-shot0_1/img250.jpg,Images/MSR-VTT-videoTestVideo_video7776-shot0_1/img288.jpg,Images/MSR-VTT-videoTestVideo_video7776-shot0_1/img325.jpg,Images/MSR-VTT-videoTestVideo_video7776-shot0_1/img346.jpg,Images/MSR-VTT-videoTestVideo_video7776-shot0_1/img350.jpg,Images/MSR-VTT-videoTestVideo_video7776-shot0_1/img353.jpg,Images/MSR-VTT-videoTestVideo_video7776-shot0_1/img358.jpg,370,36,0,2022-06-16_24h08.39.890,annotation,2021.2.3,Win32,32.25910513,,
,,,,,,,,,,,,,,,,,-0.205555556,0.239814815,1,0,0,image_1,0,41,41,51,1,721,"The man is looking to the left, his head is covering the entire vertical metal bar behind him.",H,1,7,MSR-VTT-videoTestVideo_video9608-shot8_0,Images/MSR-VTT-videoTestVideo_video9608-shot8_0/img0.jpg,Images/MSR-VTT-videoTestVideo_video9608-shot8_0/img10.jpg,Images/MSR-VTT-videoTestVideo_video9608-shot8_0/img24.jpg,Images/MSR-VTT-videoTestVideo_video9608-shot8_0/img28.jpg,Images/MSR-VTT-videoTestVideo_video9608-shot8_0/img34.jpg,Images/MSR-VTT-videoTestVideo_video9608-shot8_0/img39.jpg,Images/MSR-VTT-videoTestVideo_video9608-shot8_0/img46.jpg,Images/MSR-VTT-videoTestVideo_video9608-shot8_0/img51.jpg,Images/MSR-VTT-videoTestVideo_video9608-shot8_0/img74.jpg,Images/MSR-VTT-videoTestVideo_video9608-shot8_0/img83.jpg,1501,36,0,2022-06-16_24h08.39.890,annotation,2021.2.3,Win32,32.25910513,,
,,,,,,,,,,,,,,,,,-0.492592593,0.157407407,1,0,0,image_0,0,42,42,23,1,1541,A man holding a bottle of water in his hand.,M,0,1,MSR-VTT-videoTestVideo_video8191-shot1_0,Images/MSR-VTT-videoTestVideo_video8191-shot1_0/img0.jpg,Images/MSR-VTT-videoTestVideo_video8191-shot1_0/img3.jpg,Images/MSR-VTT-videoTestVideo_video8191-shot1_0/img16.jpg,Images/MSR-VTT-videoTestVideo_video8191-shot1_0/img20.jpg,Images/MSR-VTT-videoTestVideo_video8191-shot1_0/img28.jpg,Images/MSR-VTT-videoTestVideo_video8191-shot1_0/img39.jpg,Images/MSR-VTT-videoTestVideo_video8191-shot1_0/img51.jpg,Images/MSR-VTT-videoTestVideo_video8191-shot1_0/img57.jpg,Images/MSR-VTT-videoTestVideo_video8191-shot1_0/img60.jpg,Images/MSR-VTT-videoTestVideo_video8191-shot1_0/img63.jpg,1471,36,0,2022-06-16_24h08.39.890,annotation,2021.2.3,Win32,32.25910513,,
,,,,,,,,,,,,,,,,,-0.469444444,0.113888889,1,0,0,image_0,0,43,43,50,1,1895,A boy is holding a skateboard in his hand.,M,0,3,MSR-VTT-videoTestVideo_video7686-shot3_0,Images/MSR-VTT-videoTestVideo_video7686-shot3_0/img0.jpg,Images/MSR-VTT-videoTestVideo_video7686-shot3_0/img1.jpg,Images/MSR-VTT-videoTestVideo_video7686-shot3_0/img2.jpg,Images/MSR-VTT-videoTestVideo_video7686-shot3_0/img4.jpg,Images/MSR-VTT-videoTestVideo_video7686-shot3_0/img5.jpg,Images/MSR-VTT-videoTestVideo_video7686-shot3_0/img7.jpg,Images/MSR-VTT-videoTestVideo_video7686-shot3_0/img9.jpg,Images/MSR-VTT-videoTestVideo_video7686-shot3_0/img12.jpg,Images/MSR-VTT-videoTestVideo_video7686-shot3_0/img13.jpg,Images/MSR-VTT-videoTestVideo_video7686-shot3_0/img15.jpg,1477,36,0,2022-06-16_24h08.39.890,annotation,2021.2.3,Win32,32.25910513,,
,,,,,,,,,,,,,,,,,0.00462963,0.131481481,1,0,0,image_2,0,44,44,56,1,959,"Man is looking to left, no hands can be seen, and upper and lower teeth can be seen.",H,0,2,MSR-VTT-videoTestVideo_video8721-shot1_0,Images/MSR-VTT-videoTestVideo_video8721-shot1_0/img0.jpg,Images/MSR-VTT-videoTestVideo_video8721-shot1_0/img11.jpg,Images/MSR-VTT-videoTestVideo_video8721-shot1_0/img46.jpg,Images/MSR-VTT-videoTestVideo_video8721-shot1_0/img56.jpg,Images/MSR-VTT-videoTestVideo_video8721-shot1_0/img69.jpg,Images/MSR-VTT-videoTestVideo_video8721-shot1_0/img81.jpg,Images/MSR-VTT-videoTestVideo_video8721-shot1_0/img94.jpg,Images/MSR-VTT-videoTestVideo_video8721-shot1_0/img121.jpg,Images/MSR-VTT-videoTestVideo_video8721-shot1_0/img131.jpg,Images/MSR-VTT-videoTestVideo_video8721-shot1_0/img184.jpg,343,36,0,2022-06-16_24h08.39.890,annotation,2021.2.3,Win32,32.25910513,,
,,,,,,,,,,,,,,,,,0.332407407,-0.203703704,1,0,0,image_8,0,45,45,19,1,10,A boy is walking into a room full of people.  On the far left is a girl in the foreground wearing a red scrunchie that you can just barely see on the far left side of the image. ,H,0,7,MSR-VTT-videoTestVideo_video7041-shot1_1,Images/MSR-VTT-videoTestVideo_video7041-shot1_1/img59.jpg,Images/MSR-VTT-videoTestVideo_video7041-shot1_1/img62.jpg,Images/MSR-VTT-videoTestVideo_video7041-shot1_1/img72.jpg,Images/MSR-VTT-videoTestVideo_video7041-shot1_1/img74.jpg,Images/MSR-VTT-videoTestVideo_video7041-shot1_1/img77.jpg,Images/MSR-VTT-videoTestVideo_video7041-shot1_1/img84.jpg,Images/MSR-VTT-videoTestVideo_video7041-shot1_1/img92.jpg,Images/MSR-VTT-videoTestVideo_video7041-shot1_1/img97.jpg,Images/MSR-VTT-videoTestVideo_video7041-shot1_1/img99.jpg,Images/MSR-VTT-videoTestVideo_video7041-shot1_1/img108.jpg,1452,36,0,2022-06-16_24h08.39.890,annotation,2021.2.3,Win32,32.25910513,,
,,,,,,,,,,,,,,,,,0.04537037,0.106481481,1,0,0,image_2,0,46,46,53,1,281,the kid in orange is sticking his tongue out towards what he's eating while the other two kids appear to be taking bites,H,1,1,video-storytelling-videobirthday__amwPjAcoC8-shot18_0,Images/video-storytelling-videobirthday__amwPjAcoC8-shot18_0/img0.jpg,Images/video-storytelling-videobirthday__amwPjAcoC8-shot18_0/img5.jpg,Images/video-storytelling-videobirthday__amwPjAcoC8-shot18_0/img11.jpg,Images/video-storytelling-videobirthday__amwPjAcoC8-shot18_0/img18.jpg,Images/video-storytelling-videobirthday__amwPjAcoC8-shot18_0/img29.jpg,Images/video-storytelling-videobirthday__amwPjAcoC8-shot18_0/img38.jpg,Images/video-storytelling-videobirthday__amwPjAcoC8-shot18_0/img47.jpg,Images/video-storytelling-videobirthday__amwPjAcoC8-shot18_0/img55.jpg,Images/video-storytelling-videobirthday__amwPjAcoC8-shot18_0/img61.jpg,Images/video-storytelling-videobirthday__amwPjAcoC8-shot18_0/img72.jpg,1478,36,0,2022-06-16_24h08.39.890,annotation,2021.2.3,Win32,32.25910513,,
,,,,,,,,,,,,,,,,,0.508333333,-0.106481481,1,0,0,image_9,0,47,47,10,1,928,The top of the bird's head is cut off by the top edge of the photo. The bird's back is to us and nothing is blocking the bird's body.,H,0,9,MSR-VTT-videoTestVideo_video7113-shot1_1,Images/MSR-VTT-videoTestVideo_video7113-shot1_1/img58.jpg,Images/MSR-VTT-videoTestVideo_video7113-shot1_1/img72.jpg,Images/MSR-VTT-videoTestVideo_video7113-shot1_1/img76.jpg,Images/MSR-VTT-videoTestVideo_video7113-shot1_1/img81.jpg,Images/MSR-VTT-videoTestVideo_video7113-shot1_1/img89.jpg,Images/MSR-VTT-videoTestVideo_video7113-shot1_1/img93.jpg,Images/MSR-VTT-videoTestVideo_video7113-shot1_1/img96.jpg,Images/MSR-VTT-videoTestVideo_video7113-shot1_1/img102.jpg,Images/MSR-VTT-videoTestVideo_video7113-shot1_1/img116.jpg,Images/MSR-VTT-videoTestVideo_video7113-shot1_1/img128.jpg,1011,36,0,2022-06-16_24h08.39.890,annotation,2021.2.3,Win32,32.25910513,,
,,,,,,,,,,,,,,,,,0.525,-0.082407407,1,0,0,image_9,0,48,48,33,1,389,A far away shot of the man in a suit shows him just about to be blocked by the car but still fully visible,H,0,0,MSR-VTT-videoTestVideo_video7692-shot2_1,Images/MSR-VTT-videoTestVideo_video7692-shot2_1/img188.jpg,Images/MSR-VTT-videoTestVideo_video7692-shot2_1/img199.jpg,Images/MSR-VTT-videoTestVideo_video7692-shot2_1/img212.jpg,Images/MSR-VTT-videoTestVideo_video7692-shot2_1/img220.jpg,Images/MSR-VTT-videoTestVideo_video7692-shot2_1/img228.jpg,Images/MSR-VTT-videoTestVideo_video7692-shot2_1/img234.jpg,Images/MSR-VTT-videoTestVideo_video7692-shot2_1/img239.jpg,Images/MSR-VTT-videoTestVideo_video7692-shot2_1/img250.jpg,Images/MSR-VTT-videoTestVideo_video7692-shot2_1/img260.jpg,Images/MSR-VTT-videoTestVideo_video7692-shot2_1/img310.jpg,1119,36,0,2022-06-16_24h08.39.890,annotation,2021.2.3,Win32,32.25910513,,
,,,,,,,,,,,,,,,,,-0.533333333,0.131481481,1,0,0,image_0,0,49,49,40,1,999,"Two images are blended, with the dominant image being a hand slicing something with a vegetable slicer. The slicer on the table is very faded.",H,0,0,YouCook-video0034-shot14_4,Images/YouCook-video0034-shot14_4/img355.jpg,Images/YouCook-video0034-shot14_4/img361.jpg,Images/YouCook-video0034-shot14_4/img368.jpg,Images/YouCook-video0034-shot14_4/img399.jpg,Images/YouCook-video0034-shot14_4/img403.jpg,Images/YouCook-video0034-shot14_4/img411.jpg,Images/YouCook-video0034-shot14_4/img427.jpg,Images/YouCook-video0034-shot14_4/img432.jpg,Images/YouCook-video0034-shot14_4/img436.jpg,Images/YouCook-video0034-shot14_4/img440.jpg,1500,36,0,2022-06-16_24h08.39.890,annotation,2021.2.3,Win32,32.25910513,,
,,,,,,,,,,,,,,,,,-0.482407407,0.172222222,1,0,0,image_0,0,50,50,37,1,4,"small particles of something is sprinkle on the food inside the bowl, no finger is visible",H,0,4,YouCook-video0037-shot3_0,Images/YouCook-video0037-shot3_0/img0.jpg,Images/YouCook-video0037-shot3_0/img133.jpg,Images/YouCook-video0037-shot3_0/img199.jpg,Images/YouCook-video0037-shot3_0/img223.jpg,Images/YouCook-video0037-shot3_0/img396.jpg,Images/YouCook-video0037-shot3_0/img515.jpg,Images/YouCook-video0037-shot3_0/img539.jpg,Images/YouCook-video0037-shot3_0/img557.jpg,Images/YouCook-video0037-shot3_0/img571.jpg,Images/YouCook-video0037-shot3_0/img575.jpg,142,36,0,2022-06-16_24h08.39.890,annotation,2021.2.3,Win32,32.25910513,,
,,,,,,,,,,,,,,,,,0.038888889,-0.155555556,1,0,0,image_7,0,51,51,20,1,490,There is a van crossing to the right behind the people on the left.  You can see most of the front 2/3 of the van,H,0,7,MSR-VTT-videoTestVideo_video8022-shot1_1,Images/MSR-VTT-videoTestVideo_video8022-shot1_1/img102.jpg,Images/MSR-VTT-videoTestVideo_video8022-shot1_1/img110.jpg,Images/MSR-VTT-videoTestVideo_video8022-shot1_1/img117.jpg,Images/MSR-VTT-videoTestVideo_video8022-shot1_1/img120.jpg,Images/MSR-VTT-videoTestVideo_video8022-shot1_1/img125.jpg,Images/MSR-VTT-videoTestVideo_video8022-shot1_1/img133.jpg,Images/MSR-VTT-videoTestVideo_video8022-shot1_1/img146.jpg,Images/MSR-VTT-videoTestVideo_video8022-shot1_1/img157.jpg,Images/MSR-VTT-videoTestVideo_video8022-shot1_1/img168.jpg,Images/MSR-VTT-videoTestVideo_video8022-shot1_1/img178.jpg,962,36,0,2022-06-16_24h08.39.890,annotation,2021.2.3,Win32,32.25910513,,
,,,,,,,,,,,,,,,,,0.025,0.116666667,1,0,0,image_2,0,52,52,58,1,0,Pair of black gloves,H,,2,open-images-510_3a241cb30d6e5319,Checks/check1/open-images-225_1442c0d0ef23d58bimg3.jpg,Checks/check1/open-images-2759_3a42708fe77398b7img8.jpg,Checks/check1/open-images-510_3a241cb30d6e5319img2.jpg,Checks/check1/open-images-2209_02c98146fb93ff17img1.jpg,Checks/check1/open-images-1553_0f128317e56a9d2fimg9.jpg,Checks/check1/open-images-2666_044d7c6d11e6b493img8.jpg,Checks/check1/open-images-2880_159294646083f545img4.jpg,Checks/check1/open-images-609_2dc0baa993a2bd25img5.jpg,Checks/check1/open-images-1854_2b15616b4f1080e7img2.jpg,Checks/check1/open-images-1435_1b0ce31951048765img8.jpg,,,1,2022-06-16_24h08.39.890,annotation,2021.2.3,Win32,32.25910513,,
,,,,,,,,,,,,,,,,,-0.280555556,0.15,1,0,0,image_1,0,53,53,62,1,4,A penguin holding a piece of paper with text on it. ,H,,1,open-images-2521_074d6af730ed17a6,Checks/check5/open-images-509_4d8bd994cb8c6eaeimg0.jpg,Checks/check5/open-images-2521_074d6af730ed17a6img1.jpg,Checks/check5/open-images-1365_a00a5fde334ae45aimg4.jpg,Checks/check5/open-images-1602_44092afdeab39e73img6.jpg,Checks/check5/open-images-1032_059f3cdfb85ee0ceimg3.jpg,Checks/check5/open-images-727_25b77fff36adba66img2.jpg,Checks/check5/open-images-2208_0fb92b9978d98575img2.jpg,Checks/check5/open-images-1305_05769e6abb16fdc8img9.jpg,Checks/check5/open-images-2676_052dbf7b4899430bimg1.jpg,Checks/check5/open-images-2569_1e81d79bb796a2dbimg7.jpg,,,1,2022-06-16_24h08.39.890,annotation,2021.2.3,Win32,32.25910513,,
,,,,,,,,,,,,,,,,,0.425925926,0.135185185,1,0,0,image_4,0,54,54,17,1,2081,A man standing next to a guitar in a room.,M,0,8,MSR-VTT-videoTestVideo_video8861-shot0_0,Images/MSR-VTT-videoTestVideo_video8861-shot0_0/img0.jpg,Images/MSR-VTT-videoTestVideo_video8861-shot0_0/img4.jpg,Images/MSR-VTT-videoTestVideo_video8861-shot0_0/img15.jpg,Images/MSR-VTT-videoTestVideo_video8861-shot0_0/img37.jpg,Images/MSR-VTT-videoTestVideo_video8861-shot0_0/img54.jpg,Images/MSR-VTT-videoTestVideo_video8861-shot0_0/img64.jpg,Images/MSR-VTT-videoTestVideo_video8861-shot0_0/img72.jpg,Images/MSR-VTT-videoTestVideo_video8861-shot0_0/img101.jpg,Images/MSR-VTT-videoTestVideo_video8861-shot0_0/img106.jpg,Images/MSR-VTT-videoTestVideo_video8861-shot0_0/img108.jpg,1710,36,0,2022-06-16_24h08.39.890,annotation,2021.2.3,Win32,32.25910513,,
,,,,,,,,,,,,,,,,,0.49537037,0.137962963,1,0,0,image_4,0,55,55,21,1,1333,A person is holding a toy controller in their hands.,M,0,6,MSR-VTT-videoTestVideo_video9161-shot1_0,Images/MSR-VTT-videoTestVideo_video9161-shot1_0/img0.jpg,Images/MSR-VTT-videoTestVideo_video9161-shot1_0/img10.jpg,Images/MSR-VTT-videoTestVideo_video9161-shot1_0/img30.jpg,Images/MSR-VTT-videoTestVideo_video9161-shot1_0/img83.jpg,Images/MSR-VTT-videoTestVideo_video9161-shot1_0/img87.jpg,Images/MSR-VTT-videoTestVideo_video9161-shot1_0/img90.jpg,Images/MSR-VTT-videoTestVideo_video9161-shot1_0/img95.jpg,Images/MSR-VTT-videoTestVideo_video9161-shot1_0/img105.jpg,Images/MSR-VTT-videoTestVideo_video9161-shot1_0/img111.jpg,Images/MSR-VTT-videoTestVideo_video9161-shot1_0/img114.jpg,231,36,0,2022-06-16_24h08.39.890,annotation,2021.2.3,Win32,32.25910513,,
,,,,,,,,,,,,,,,,,0.084259259,0.168518519,1,0,0,image_2,0,56,56,7,1,2083,A child playing with a stuffed animal on a bed.,M,0,3,video-storytelling-videobirthday__amwPjAcoC8-shot14_1,Images/video-storytelling-videobirthday__amwPjAcoC8-shot14_1/img27.jpg,Images/video-storytelling-videobirthday__amwPjAcoC8-shot14_1/img30.jpg,Images/video-storytelling-videobirthday__amwPjAcoC8-shot14_1/img32.jpg,Images/video-storytelling-videobirthday__amwPjAcoC8-shot14_1/img35.jpg,Images/video-storytelling-videobirthday__amwPjAcoC8-shot14_1/img38.jpg,Images/video-storytelling-videobirthday__amwPjAcoC8-shot14_1/img41.jpg,Images/video-storytelling-videobirthday__amwPjAcoC8-shot14_1/img43.jpg,Images/video-storytelling-videobirthday__amwPjAcoC8-shot14_1/img45.jpg,Images/video-storytelling-videobirthday__amwPjAcoC8-shot14_1/img47.jpg,Images/video-storytelling-videobirthday__amwPjAcoC8-shot14_1/img51.jpg,1337,36,0,2022-06-16_24h08.39.890,annotation,2021.2.3,Win32,32.25910513,,
,,,,,,,,,,,,,,,,,-0.434259259,0.134259259,1,0,0,image_0,0,57,57,45,1,885,A person has their hand on an onion and you can see all of their fingers besides their thumb.,H,0,1,YouCook-video0034-shot13_0,Images/YouCook-video0034-shot13_0/img0.jpg,Images/YouCook-video0034-shot13_0/img5.jpg,Images/YouCook-video0034-shot13_0/img14.jpg,Images/YouCook-video0034-shot13_0/img33.jpg,Images/YouCook-video0034-shot13_0/img74.jpg,Images/YouCook-video0034-shot13_0/img84.jpg,Images/YouCook-video0034-shot13_0/img101.jpg,Images/YouCook-video0034-shot13_0/img113.jpg,Images/YouCook-video0034-shot13_0/img127.jpg,Images/YouCook-video0034-shot13_0/img130.jpg,2044,36,0,2022-06-16_24h08.39.890,annotation,2021.2.3,Win32,32.25910513,,
,,,,,,,,,,,,,,,,,0.037037037,0.118518519,1,0,0,image_2,0,58,58,6,1,1540,A child standing next to a car in a parking lot.,M,0,7,video-storytelling-videochristmas_5RR_sRzKODA-shot30_11,Images/video-storytelling-videochristmas_5RR_sRzKODA-shot30_11/img528.jpg,Images/video-storytelling-videochristmas_5RR_sRzKODA-shot30_11/img529.jpg,Images/video-storytelling-videochristmas_5RR_sRzKODA-shot30_11/img531.jpg,Images/video-storytelling-videochristmas_5RR_sRzKODA-shot30_11/img532.jpg,Images/video-storytelling-videochristmas_5RR_sRzKODA-shot30_11/img533.jpg,Images/video-storytelling-videochristmas_5RR_sRzKODA-shot30_11/img534.jpg,Images/video-storytelling-videochristmas_5RR_sRzKODA-shot30_11/img536.jpg,Images/video-storytelling-videochristmas_5RR_sRzKODA-shot30_11/img538.jpg,Images/video-storytelling-videochristmas_5RR_sRzKODA-shot30_11/img540.jpg,Images/video-storytelling-videochristmas_5RR_sRzKODA-shot30_11/img544.jpg,1284,36,0,2022-06-16_24h08.39.890,annotation,2021.2.3,Win32,32.25910513,,
,,,,,,,,,,,,,,,,,-0.009259259,-0.162962963,1,0,0,image_7,0,59,59,36,1,213,The woman is looking up and to the right with neither of her hands visible and slightly open lips,H,1,4,MSR-VTT-videoTestVideo_video7533-shot1_4,Images/MSR-VTT-videoTestVideo_video7533-shot1_4/img398.jpg,Images/MSR-VTT-videoTestVideo_video7533-shot1_4/img402.jpg,Images/MSR-VTT-videoTestVideo_video7533-shot1_4/img406.jpg,Images/MSR-VTT-videoTestVideo_video7533-shot1_4/img413.jpg,Images/MSR-VTT-videoTestVideo_video7533-shot1_4/img417.jpg,Images/MSR-VTT-videoTestVideo_video7533-shot1_4/img423.jpg,Images/MSR-VTT-videoTestVideo_video7533-shot1_4/img425.jpg,Images/MSR-VTT-videoTestVideo_video7533-shot1_4/img429.jpg,Images/MSR-VTT-videoTestVideo_video7533-shot1_4/img449.jpg,Images/MSR-VTT-videoTestVideo_video7533-shot1_4/img456.jpg,1582,36,0,2022-06-16_24h08.39.890,annotation,2021.2.3,Win32,32.25910513,,
,,,,,,,,,,,,,,,,,0.238888889,-0.188888889,1,0,0,image_8,0,60,60,44,1,1939,A child is laying on top of a blanket.,M,0,6,video-storytelling-videochristmas_5RR_sRzKODA-shot23_0,Images/video-storytelling-videochristmas_5RR_sRzKODA-shot23_0/img0.jpg,Images/video-storytelling-videochristmas_5RR_sRzKODA-shot23_0/img2.jpg,Images/video-storytelling-videochristmas_5RR_sRzKODA-shot23_0/img14.jpg,Images/video-storytelling-videochristmas_5RR_sRzKODA-shot23_0/img53.jpg,Images/video-storytelling-videochristmas_5RR_sRzKODA-shot23_0/img77.jpg,Images/video-storytelling-videochristmas_5RR_sRzKODA-shot23_0/img86.jpg,Images/video-storytelling-videochristmas_5RR_sRzKODA-shot23_0/img91.jpg,Images/video-storytelling-videochristmas_5RR_sRzKODA-shot23_0/img93.jpg,Images/video-storytelling-videochristmas_5RR_sRzKODA-shot23_0/img126.jpg,Images/video-storytelling-videochristmas_5RR_sRzKODA-shot23_0/img136.jpg,700,36,0,2022-06-16_24h08.39.890,annotation,2021.2.3,Win32,32.25910513,,
,,,,,,,,,,,,,,,,,0.487962963,-0.197222222,1,0,0,image_9,0,61,61,29,1,1373,A close up of a motorcycle parked on the side of the road.,M,0,9,MSR-VTT-videoTestVideo_video9996-shot1_3,Images/MSR-VTT-videoTestVideo_video9996-shot1_3/img163.jpg,Images/MSR-VTT-videoTestVideo_video9996-shot1_3/img168.jpg,Images/MSR-VTT-videoTestVideo_video9996-shot1_3/img171.jpg,Images/MSR-VTT-videoTestVideo_video9996-shot1_3/img174.jpg,Images/MSR-VTT-videoTestVideo_video9996-shot1_3/img178.jpg,Images/MSR-VTT-videoTestVideo_video9996-shot1_3/img183.jpg,Images/MSR-VTT-videoTestVideo_video9996-shot1_3/img194.jpg,Images/MSR-VTT-videoTestVideo_video9996-shot1_3/img209.jpg,Images/MSR-VTT-videoTestVideo_video9996-shot1_3/img219.jpg,Images/MSR-VTT-videoTestVideo_video9996-shot1_3/img222.jpg,572,36,0,2022-06-16_24h08.39.890,annotation,2021.2.3,Win32,32.25910513,,
,,,,,,,,,,,,,,,,,0.463888889,-0.199074074,1,0,0,image_9,0,62,62,60,1,2,Green type writer with a red tape. ,H,,9,open-images-531_0dd4eb59d465a8be,Checks/check3/open-images-503_1ccd6fa641154ebbimg7.jpg,Checks/check3/open-images-1852_00faf52058ad28b8img4.jpg,Checks/check3/open-images-386_1b2e28d6d994603eimg1.jpg,Checks/check3/open-images-471_1121e9f97c200ac0img8.jpg,Checks/check3/open-images-1886_3db71eaddb618934img8.jpg,Checks/check3/open-images-1696_20a4ebf0c0f76b05img6.jpg,Checks/check3/open-images-2447_128483a48e1552f4img6.jpg,Checks/check3/open-images-2994_9965cbf8aa20bda0img2.jpg,Checks/check3/open-images-1068_03d63613107970b3img6.jpg,Checks/check3/open-images-531_0dd4eb59d465a8beimg9.jpg,,,1,2022-06-16_24h08.39.890,annotation,2021.2.3,Win32,32.25910513,,
,,,,,,,,,,,,,,,,,,,,,,,,,,,,,,,,,,,,,,,,,,,,,,,2022-06-16_24h08.39.890,annotation,2021.2.3,Win32,32.25910513,space,21.2608
