mturk,key_resp_2.keys,key_resp_2.rt,key_resp_3.keys,key_resp_3.rt,mouse_2.x,mouse_2.y,mouse_2.leftButton,mouse_2.midButton,mouse_2.rightButton,mouse_2.clicked_name,key_resp_5.keys,key_resp_5.rt,key_resp.keys,key_resp.rt,key_resp_6.keys,key_resp_6.rt,mouse.x,mouse.y,mouse.leftButton,mouse.midButton,mouse.rightButton,mouse.clicked_name,trials.thisRepN,trials.thisTrialN,trials.thisN,trials.thisIndex,trials.ran,N,caption,class_caption,model_guessed,target_idx,image_set,img1,img2,img3,img4,img5,img6,img7,img8,img9,img10,Q_id,block,is_check,date,expName,psychopyVersion,OS,frameRate
4472427,space,208.6484,space,0.2771,0.216666667,0.065555556,1,0,0,ex4,space,13.3923,space,21.2401,space,2.4032,0.2,0.148888889,1,0,0,image_3,0,0,0,34,1,245,The groom is ever so slightly to the left of center of the image and half of one eye of the bridge is visible,H,0,1,video-storytelling-videowedding_46xhFCXBMJs-shot78_1,Images/video-storytelling-videowedding_46xhFCXBMJs-shot78_1/img47.jpg,Images/video-storytelling-videowedding_46xhFCXBMJs-shot78_1/img55.jpg,Images/video-storytelling-videowedding_46xhFCXBMJs-shot78_1/img58.jpg,Images/video-storytelling-videowedding_46xhFCXBMJs-shot78_1/img66.jpg,Images/video-storytelling-videowedding_46xhFCXBMJs-shot78_1/img70.jpg,Images/video-storytelling-videowedding_46xhFCXBMJs-shot78_1/img74.jpg,Images/video-storytelling-videowedding_46xhFCXBMJs-shot78_1/img76.jpg,Images/video-storytelling-videowedding_46xhFCXBMJs-shot78_1/img78.jpg,Images/video-storytelling-videowedding_46xhFCXBMJs-shot78_1/img81.jpg,Images/video-storytelling-videowedding_46xhFCXBMJs-shot78_1/img84.jpg,37,3,0,2022-06-15_04h10.23.786,annotation,2021.2.3,Win32,60.0024001
,,,,,,,,,,,,,,,,,-0.531111111,0.143333333,1,0,0,image_0,0,1,1,18,1,203,There is still a little bit of room from the top of the white sign in the basket on the right and the top of image.  You can still just see the basket on the left.  ,H,0,6,MSR-VTT-videoTestVideo_video9053-shot1_8,Images/MSR-VTT-videoTestVideo_video9053-shot1_8/img370.jpg,Images/MSR-VTT-videoTestVideo_video9053-shot1_8/img371.jpg,Images/MSR-VTT-videoTestVideo_video9053-shot1_8/img376.jpg,Images/MSR-VTT-videoTestVideo_video9053-shot1_8/img379.jpg,Images/MSR-VTT-videoTestVideo_video9053-shot1_8/img381.jpg,Images/MSR-VTT-videoTestVideo_video9053-shot1_8/img383.jpg,Images/MSR-VTT-videoTestVideo_video9053-shot1_8/img386.jpg,Images/MSR-VTT-videoTestVideo_video9053-shot1_8/img388.jpg,Images/MSR-VTT-videoTestVideo_video9053-shot1_8/img391.jpg,Images/MSR-VTT-videoTestVideo_video9053-shot1_8/img394.jpg,912,3,0,2022-06-15_04h10.23.786,annotation,2021.2.3,Win32,60.0024001
,,,,,,,,,,,,,,,,,0.261111111,0.143333333,1,0,0,image_3,0,2,2,36,1,1350,A woman standing on top of a bed in a bedroom.,M,0,8,video-storytelling-videobirthday_fwpYnUDbusw-shot66_5,Images/video-storytelling-videobirthday_fwpYnUDbusw-shot66_5/img253.jpg,Images/video-storytelling-videobirthday_fwpYnUDbusw-shot66_5/img261.jpg,Images/video-storytelling-videobirthday_fwpYnUDbusw-shot66_5/img268.jpg,Images/video-storytelling-videobirthday_fwpYnUDbusw-shot66_5/img277.jpg,Images/video-storytelling-videobirthday_fwpYnUDbusw-shot66_5/img289.jpg,Images/video-storytelling-videobirthday_fwpYnUDbusw-shot66_5/img294.jpg,Images/video-storytelling-videobirthday_fwpYnUDbusw-shot66_5/img299.jpg,Images/video-storytelling-videobirthday_fwpYnUDbusw-shot66_5/img317.jpg,Images/video-storytelling-videobirthday_fwpYnUDbusw-shot66_5/img336.jpg,Images/video-storytelling-videobirthday_fwpYnUDbusw-shot66_5/img347.jpg,743,3,0,2022-06-15_04h10.23.786,annotation,2021.2.3,Win32,60.0024001
,,,,,,,,,,,,,,,,,-0.473333333,0.077777778,1,0,0,image_0,0,3,3,38,1,933,The right hand is on top of the steering wheel.  The hand is roughly lined up with the truck in the far distance. ,H,0,7,MSR-VTT-videoTestVideo_video9355-shot1_1,Images/MSR-VTT-videoTestVideo_video9355-shot1_1/img47.jpg,Images/MSR-VTT-videoTestVideo_video9355-shot1_1/img50.jpg,Images/MSR-VTT-videoTestVideo_video9355-shot1_1/img54.jpg,Images/MSR-VTT-videoTestVideo_video9355-shot1_1/img59.jpg,Images/MSR-VTT-videoTestVideo_video9355-shot1_1/img69.jpg,Images/MSR-VTT-videoTestVideo_video9355-shot1_1/img73.jpg,Images/MSR-VTT-videoTestVideo_video9355-shot1_1/img75.jpg,Images/MSR-VTT-videoTestVideo_video9355-shot1_1/img78.jpg,Images/MSR-VTT-videoTestVideo_video9355-shot1_1/img82.jpg,Images/MSR-VTT-videoTestVideo_video9355-shot1_1/img97.jpg,1977,3,0,2022-06-15_04h10.23.786,annotation,2021.2.3,Win32,60.0024001
,,,,,,,,,,,,,,,,,0.195555556,-0.182222222,1,0,0,image_8,0,4,4,53,1,813,Her eyes are closed.,H,1,8,MSR-VTT-videoTestVideo_video8496-shot1_0,Images/MSR-VTT-videoTestVideo_video8496-shot1_0/img0.jpg,Images/MSR-VTT-videoTestVideo_video8496-shot1_0/img4.jpg,Images/MSR-VTT-videoTestVideo_video8496-shot1_0/img6.jpg,Images/MSR-VTT-videoTestVideo_video8496-shot1_0/img7.jpg,Images/MSR-VTT-videoTestVideo_video8496-shot1_0/img9.jpg,Images/MSR-VTT-videoTestVideo_video8496-shot1_0/img11.jpg,Images/MSR-VTT-videoTestVideo_video8496-shot1_0/img18.jpg,Images/MSR-VTT-videoTestVideo_video8496-shot1_0/img27.jpg,Images/MSR-VTT-videoTestVideo_video8496-shot1_0/img69.jpg,Images/MSR-VTT-videoTestVideo_video8496-shot1_0/img75.jpg,135,3,0,2022-06-15_04h10.23.786,annotation,2021.2.3,Win32,60.0024001
,,,,,,,,,,,,,,,,,0.506666667,0.116666667,1,0,0,image_4,0,5,5,45,1,1012,The blue object in their hands is at the top right corner of the bowl. The mixture in the bowl still looks very marbled. ,H,0,4,MSR-VTT-videoTestVideo_video7016-shot1_2,Images/MSR-VTT-videoTestVideo_video7016-shot1_2/img224.jpg,Images/MSR-VTT-videoTestVideo_video7016-shot1_2/img229.jpg,Images/MSR-VTT-videoTestVideo_video7016-shot1_2/img250.jpg,Images/MSR-VTT-videoTestVideo_video7016-shot1_2/img261.jpg,Images/MSR-VTT-videoTestVideo_video7016-shot1_2/img267.jpg,Images/MSR-VTT-videoTestVideo_video7016-shot1_2/img282.jpg,Images/MSR-VTT-videoTestVideo_video7016-shot1_2/img350.jpg,Images/MSR-VTT-videoTestVideo_video7016-shot1_2/img365.jpg,Images/MSR-VTT-videoTestVideo_video7016-shot1_2/img369.jpg,Images/MSR-VTT-videoTestVideo_video7016-shot1_2/img376.jpg,1275,3,0,2022-06-15_04h10.23.786,annotation,2021.2.3,Win32,60.0024001
,,,,,,,,,,,,,,,,,-0.007777778,0.191111111,1,0,0,image_2,0,6,6,61,1,3,A grey elephant with golden leaves on it. ,H,,2,open-images-1745_0ed62fe71809b2f5,Checks/check4/open-images-2609_3f72daeb23764ecfimg6.jpg,Checks/check4/open-images-1928_60679e2899870e08img1.jpg,Checks/check4/open-images-1745_0ed62fe71809b2f5img2.jpg,Checks/check4/open-images-1811_9ae6351c7f7565edimg0.jpg,Checks/check4/open-images-1721_6f04da11945ea492img3.jpg,Checks/check4/open-images-1907_5f9be3e4ea5e22c7img2.jpg,Checks/check4/open-images-580_0ddffb9c25141999img1.jpg,Checks/check4/open-images-2924_0645dcbcf998fed9img3.jpg,Checks/check4/open-images-869_856ecbcb5faf76e3img8.jpg,Checks/check4/open-images-250_02039517e63a91fbimg1.jpg,,,1,2022-06-15_04h10.23.786,annotation,2021.2.3,Win32,60.0024001
,,,,,,,,,,,,,,,,,-0.49,-0.122222222,1,0,0,image_5,0,7,7,59,1,1,The only picture of a hawk.  It is looking to the left.  You see lots of branches and darker blue sky. ,H,,5,open-images-958_686caac9c5b322e7,Checks/check2/open-images-2603_1b5152f01f0093e7img3.jpg,Checks/check2/open-images-1836_069810916ce5d675img8.jpg,Checks/check2/open-images-974_0748fdedc4bf8b7bimg2.jpg,Checks/check2/open-images-617_01fb725fb1aa7b04img6.jpg,Checks/check2/open-images-507_047769e1f977cd97img2.jpg,Checks/check2/open-images-958_686caac9c5b322e7img5.jpg,Checks/check2/open-images-1278_21851d9bf5dc05c9img7.jpg,Checks/check2/open-images-2424_05f04546e01499f2img0.jpg,Checks/check2/open-images-1529_1442b11a10a6aeadimg3.jpg,Checks/check2/open-images-514_2c523ddedc2561d4img1.jpg,,,1,2022-06-15_04h10.23.786,annotation,2021.2.3,Win32,60.0024001
,,,,,,,,,,,,,,,,,-0.487777778,0.13,1,0,0,image_0,0,8,8,48,1,1385,A little girl petting a horse in a field.,M,0,0,MSR-VTT-videoTestVideo_video8242-shot0_0,Images/MSR-VTT-videoTestVideo_video8242-shot0_0/img0.jpg,Images/MSR-VTT-videoTestVideo_video8242-shot0_0/img13.jpg,Images/MSR-VTT-videoTestVideo_video8242-shot0_0/img15.jpg,Images/MSR-VTT-videoTestVideo_video8242-shot0_0/img17.jpg,Images/MSR-VTT-videoTestVideo_video8242-shot0_0/img19.jpg,Images/MSR-VTT-videoTestVideo_video8242-shot0_0/img21.jpg,Images/MSR-VTT-videoTestVideo_video8242-shot0_0/img22.jpg,Images/MSR-VTT-videoTestVideo_video8242-shot0_0/img23.jpg,Images/MSR-VTT-videoTestVideo_video8242-shot0_0/img28.jpg,Images/MSR-VTT-videoTestVideo_video8242-shot0_0/img36.jpg,1100,3,0,2022-06-15_04h10.23.786,annotation,2021.2.3,Win32,60.0024001
,,,,,,,,,,,,,,,,,0.484444444,-0.12,1,0,0,image_9,0,9,9,16,1,423,The girl in red is in profile and looking up and smiling at the other woman. The woman in black is looking down. You can't see any exposed flesh on her right arm.,H,0,9,MSR-VTT-videoTestVideo_video9682-shot0_3,Images/MSR-VTT-videoTestVideo_video9682-shot0_3/img230.jpg,Images/MSR-VTT-videoTestVideo_video9682-shot0_3/img232.jpg,Images/MSR-VTT-videoTestVideo_video9682-shot0_3/img234.jpg,Images/MSR-VTT-videoTestVideo_video9682-shot0_3/img238.jpg,Images/MSR-VTT-videoTestVideo_video9682-shot0_3/img243.jpg,Images/MSR-VTT-videoTestVideo_video9682-shot0_3/img250.jpg,Images/MSR-VTT-videoTestVideo_video9682-shot0_3/img253.jpg,Images/MSR-VTT-videoTestVideo_video9682-shot0_3/img260.jpg,Images/MSR-VTT-videoTestVideo_video9682-shot0_3/img267.jpg,Images/MSR-VTT-videoTestVideo_video9682-shot0_3/img272.jpg,298,3,0,2022-06-15_04h10.23.786,annotation,2021.2.3,Win32,60.0024001
,,,,,,,,,,,,,,,,,0.491111111,-0.183333333,1,0,0,image_9,0,10,10,23,1,1255,A large bowl of food sitting on top of a kitchen counter.,M,0,6,MSR-VTT-videoTestVideo_video8191-shot4_0,Images/MSR-VTT-videoTestVideo_video8191-shot4_0/img0.jpg,Images/MSR-VTT-videoTestVideo_video8191-shot4_0/img7.jpg,Images/MSR-VTT-videoTestVideo_video8191-shot4_0/img8.jpg,Images/MSR-VTT-videoTestVideo_video8191-shot4_0/img14.jpg,Images/MSR-VTT-videoTestVideo_video8191-shot4_0/img16.jpg,Images/MSR-VTT-videoTestVideo_video8191-shot4_0/img17.jpg,Images/MSR-VTT-videoTestVideo_video8191-shot4_0/img18.jpg,Images/MSR-VTT-videoTestVideo_video8191-shot4_0/img19.jpg,Images/MSR-VTT-videoTestVideo_video8191-shot4_0/img21.jpg,Images/MSR-VTT-videoTestVideo_video8191-shot4_0/img23.jpg,1531,3,0,2022-06-15_04h10.23.786,annotation,2021.2.3,Win32,60.0024001
,,,,,,,,,,,,,,,,,-0.268888889,0.168888889,1,0,0,image_1,0,11,11,8,1,1598,a close up of a tray filled with carrots and apples.,M,1,5,MSR-VTT-videoTestVideo_video7267-shot1_1,Images/MSR-VTT-videoTestVideo_video7267-shot1_1/img32.jpg,Images/MSR-VTT-videoTestVideo_video7267-shot1_1/img48.jpg,Images/MSR-VTT-videoTestVideo_video7267-shot1_1/img52.jpg,Images/MSR-VTT-videoTestVideo_video7267-shot1_1/img56.jpg,Images/MSR-VTT-videoTestVideo_video7267-shot1_1/img60.jpg,Images/MSR-VTT-videoTestVideo_video7267-shot1_1/img64.jpg,Images/MSR-VTT-videoTestVideo_video7267-shot1_1/img80.jpg,Images/MSR-VTT-videoTestVideo_video7267-shot1_1/img87.jpg,Images/MSR-VTT-videoTestVideo_video7267-shot1_1/img90.jpg,Images/MSR-VTT-videoTestVideo_video7267-shot1_1/img104.jpg,950,3,0,2022-06-15_04h10.23.786,annotation,2021.2.3,Win32,60.0024001
,,,,,,,,,,,,,,,,,-0.268888889,0.141111111,1,0,0,image_1,0,12,12,62,1,4,A penguin holding a piece of paper with text on it. ,H,,1,open-images-2521_074d6af730ed17a6,Checks/check5/open-images-509_4d8bd994cb8c6eaeimg0.jpg,Checks/check5/open-images-2521_074d6af730ed17a6img1.jpg,Checks/check5/open-images-1365_a00a5fde334ae45aimg4.jpg,Checks/check5/open-images-1602_44092afdeab39e73img6.jpg,Checks/check5/open-images-1032_059f3cdfb85ee0ceimg3.jpg,Checks/check5/open-images-727_25b77fff36adba66img2.jpg,Checks/check5/open-images-2208_0fb92b9978d98575img2.jpg,Checks/check5/open-images-1305_05769e6abb16fdc8img9.jpg,Checks/check5/open-images-2676_052dbf7b4899430bimg1.jpg,Checks/check5/open-images-2569_1e81d79bb796a2dbimg7.jpg,,,1,2022-06-15_04h10.23.786,annotation,2021.2.3,Win32,60.0024001
,,,,,,,,,,,,,,,,,-0.263333333,0.166666667,1,0,0,image_1,0,13,13,12,1,1228,A man standing in a room with a hat on.,M,0,4,MSR-VTT-videoTestVideo_video8700-shot3_2,Images/MSR-VTT-videoTestVideo_video8700-shot3_2/img143.jpg,Images/MSR-VTT-videoTestVideo_video8700-shot3_2/img146.jpg,Images/MSR-VTT-videoTestVideo_video8700-shot3_2/img152.jpg,Images/MSR-VTT-videoTestVideo_video8700-shot3_2/img157.jpg,Images/MSR-VTT-videoTestVideo_video8700-shot3_2/img162.jpg,Images/MSR-VTT-videoTestVideo_video8700-shot3_2/img168.jpg,Images/MSR-VTT-videoTestVideo_video8700-shot3_2/img172.jpg,Images/MSR-VTT-videoTestVideo_video8700-shot3_2/img178.jpg,Images/MSR-VTT-videoTestVideo_video8700-shot3_2/img182.jpg,Images/MSR-VTT-videoTestVideo_video8700-shot3_2/img186.jpg,329,3,0,2022-06-15_04h10.23.786,annotation,2021.2.3,Win32,60.0024001
,,,,,,,,,,,,,,,,,-0.271111111,-0.135555556,1,0,0,image_6,0,14,14,11,1,513,A woman has both hands on her head.,H,0,3,video-storytelling-videocamping_1OzbiB1TIWI-shot7_0,Images/video-storytelling-videocamping_1OzbiB1TIWI-shot7_0/img0.jpg,Images/video-storytelling-videocamping_1OzbiB1TIWI-shot7_0/img2.jpg,Images/video-storytelling-videocamping_1OzbiB1TIWI-shot7_0/img9.jpg,Images/video-storytelling-videocamping_1OzbiB1TIWI-shot7_0/img15.jpg,Images/video-storytelling-videocamping_1OzbiB1TIWI-shot7_0/img20.jpg,Images/video-storytelling-videocamping_1OzbiB1TIWI-shot7_0/img22.jpg,Images/video-storytelling-videocamping_1OzbiB1TIWI-shot7_0/img23.jpg,Images/video-storytelling-videocamping_1OzbiB1TIWI-shot7_0/img28.jpg,Images/video-storytelling-videocamping_1OzbiB1TIWI-shot7_0/img35.jpg,Images/video-storytelling-videocamping_1OzbiB1TIWI-shot7_0/img39.jpg,1748,3,0,2022-06-15_04h10.23.786,annotation,2021.2.3,Win32,60.0024001
,,,,,,,,,,,,,,,,,-0.487777778,0.117777778,1,0,0,image_0,0,15,15,56,1,1854,A group of horses standing on top of a fence.,M,0,4,MSR-VTT-videoTestVideo_video9973-shot1_1,Images/MSR-VTT-videoTestVideo_video9973-shot1_1/img80.jpg,Images/MSR-VTT-videoTestVideo_video9973-shot1_1/img111.jpg,Images/MSR-VTT-videoTestVideo_video9973-shot1_1/img114.jpg,Images/MSR-VTT-videoTestVideo_video9973-shot1_1/img127.jpg,Images/MSR-VTT-videoTestVideo_video9973-shot1_1/img142.jpg,Images/MSR-VTT-videoTestVideo_video9973-shot1_1/img148.jpg,Images/MSR-VTT-videoTestVideo_video9973-shot1_1/img161.jpg,Images/MSR-VTT-videoTestVideo_video9973-shot1_1/img168.jpg,Images/MSR-VTT-videoTestVideo_video9973-shot1_1/img185.jpg,Images/MSR-VTT-videoTestVideo_video9973-shot1_1/img188.jpg,709,3,0,2022-06-15_04h10.23.786,annotation,2021.2.3,Win32,60.0024001
,,,,,,,,,,,,,,,,,-0.278888889,-0.194444444,1,0,0,image_6,0,16,16,55,1,75,"The woman's face is popping up, it's blurry and her mouth is not showing yet.",H,1,2,MSR-VTT-videoTestVideo_video7803-shot2_0,Images/MSR-VTT-videoTestVideo_video7803-shot2_0/img0.jpg,Images/MSR-VTT-videoTestVideo_video7803-shot2_0/img3.jpg,Images/MSR-VTT-videoTestVideo_video7803-shot2_0/img7.jpg,Images/MSR-VTT-videoTestVideo_video7803-shot2_0/img11.jpg,Images/MSR-VTT-videoTestVideo_video7803-shot2_0/img29.jpg,Images/MSR-VTT-videoTestVideo_video7803-shot2_0/img46.jpg,Images/MSR-VTT-videoTestVideo_video7803-shot2_0/img48.jpg,Images/MSR-VTT-videoTestVideo_video7803-shot2_0/img50.jpg,Images/MSR-VTT-videoTestVideo_video7803-shot2_0/img69.jpg,Images/MSR-VTT-videoTestVideo_video7803-shot2_0/img72.jpg,7,3,0,2022-06-15_04h10.23.786,annotation,2021.2.3,Win32,60.0024001
,,,,,,,,,,,,,,,,,0.483333333,-0.143333333,1,0,0,image_9,0,17,17,2,1,1683,A person cutting a pair of scissors with a pair of scissors.,M,0,0,YouCook-video0034-shot14_1,Images/YouCook-video0034-shot14_1/img121.jpg,Images/YouCook-video0034-shot14_1/img133.jpg,Images/YouCook-video0034-shot14_1/img152.jpg,Images/YouCook-video0034-shot14_1/img164.jpg,Images/YouCook-video0034-shot14_1/img178.jpg,Images/YouCook-video0034-shot14_1/img188.jpg,Images/YouCook-video0034-shot14_1/img193.jpg,Images/YouCook-video0034-shot14_1/img196.jpg,Images/YouCook-video0034-shot14_1/img197.jpg,Images/YouCook-video0034-shot14_1/img202.jpg,1809,3,0,2022-06-15_04h10.23.786,annotation,2021.2.3,Win32,60.0024001
,,,,,,,,,,,,,,,,,-0.045555556,0.178888889,1,0,0,image_2,0,18,18,58,1,0,Pair of black gloves,H,,2,open-images-510_3a241cb30d6e5319,Checks/check1/open-images-225_1442c0d0ef23d58bimg3.jpg,Checks/check1/open-images-2759_3a42708fe77398b7img8.jpg,Checks/check1/open-images-510_3a241cb30d6e5319img2.jpg,Checks/check1/open-images-2209_02c98146fb93ff17img1.jpg,Checks/check1/open-images-1553_0f128317e56a9d2fimg9.jpg,Checks/check1/open-images-2666_044d7c6d11e6b493img8.jpg,Checks/check1/open-images-2880_159294646083f545img4.jpg,Checks/check1/open-images-609_2dc0baa993a2bd25img5.jpg,Checks/check1/open-images-1854_2b15616b4f1080e7img2.jpg,Checks/check1/open-images-1435_1b0ce31951048765img8.jpg,,,1,2022-06-15_04h10.23.786,annotation,2021.2.3,Win32,60.0024001
,,,,,,,,,,,,,,,,,0.444444444,-0.113333333,1,0,0,image_9,0,19,19,13,1,692,All of the teapots on the shelves at the bottom are visible but just barely. You don't see any of the man's eyes. ,H,0,1,video-storytelling-videocamping_dBXYM3dQTSo-shot81_0,Images/video-storytelling-videocamping_dBXYM3dQTSo-shot81_0/img0.jpg,Images/video-storytelling-videocamping_dBXYM3dQTSo-shot81_0/img11.jpg,Images/video-storytelling-videocamping_dBXYM3dQTSo-shot81_0/img23.jpg,Images/video-storytelling-videocamping_dBXYM3dQTSo-shot81_0/img27.jpg,Images/video-storytelling-videocamping_dBXYM3dQTSo-shot81_0/img29.jpg,Images/video-storytelling-videocamping_dBXYM3dQTSo-shot81_0/img32.jpg,Images/video-storytelling-videocamping_dBXYM3dQTSo-shot81_0/img35.jpg,Images/video-storytelling-videocamping_dBXYM3dQTSo-shot81_0/img38.jpg,Images/video-storytelling-videocamping_dBXYM3dQTSo-shot81_0/img50.jpg,Images/video-storytelling-videocamping_dBXYM3dQTSo-shot81_0/img57.jpg,204,3,0,2022-06-15_04h10.23.786,annotation,2021.2.3,Win32,60.0024001
,,,,,,,,,,,,,,,,,-0.037777778,0.147777778,1,0,0,image_2,0,20,20,47,1,1070,a close up of a person cutting a piece of meat.,M,0,2,video-storytelling-videocamping_EytINruY3-U-shot37_1,Images/video-storytelling-videocamping_EytINruY3-U-shot37_1/img322.jpg,Images/video-storytelling-videocamping_EytINruY3-U-shot37_1/img326.jpg,Images/video-storytelling-videocamping_EytINruY3-U-shot37_1/img333.jpg,Images/video-storytelling-videocamping_EytINruY3-U-shot37_1/img342.jpg,Images/video-storytelling-videocamping_EytINruY3-U-shot37_1/img364.jpg,Images/video-storytelling-videocamping_EytINruY3-U-shot37_1/img407.jpg,Images/video-storytelling-videocamping_EytINruY3-U-shot37_1/img431.jpg,Images/video-storytelling-videocamping_EytINruY3-U-shot37_1/img434.jpg,Images/video-storytelling-videocamping_EytINruY3-U-shot37_1/img443.jpg,Images/video-storytelling-videocamping_EytINruY3-U-shot37_1/img448.jpg,72,3,0,2022-06-15_04h10.23.786,annotation,2021.2.3,Win32,60.0024001
,,,,,,,,,,,,,,,,,-0.01,0.138888889,1,0,0,image_2,0,21,21,41,1,1715,A blurry image of a red and black couch.,M,0,2,MSR-VTT-videoTestVideo_video9363-shot2_0,Images/MSR-VTT-videoTestVideo_video9363-shot2_0/img3.jpg,Images/MSR-VTT-videoTestVideo_video9363-shot2_0/img7.jpg,Images/MSR-VTT-videoTestVideo_video9363-shot2_0/img8.jpg,Images/MSR-VTT-videoTestVideo_video9363-shot2_0/img9.jpg,Images/MSR-VTT-videoTestVideo_video9363-shot2_0/img10.jpg,Images/MSR-VTT-videoTestVideo_video9363-shot2_0/img14.jpg,Images/MSR-VTT-videoTestVideo_video9363-shot2_0/img15.jpg,Images/MSR-VTT-videoTestVideo_video9363-shot2_0/img18.jpg,Images/MSR-VTT-videoTestVideo_video9363-shot2_0/img22.jpg,Images/MSR-VTT-videoTestVideo_video9363-shot2_0/img26.jpg,1960,3,0,2022-06-15_04h10.23.786,annotation,2021.2.3,Win32,60.0024001
,,,,,,,,,,,,,,,,,-0.221111111,0.095555556,1,0,0,image_1,0,22,22,30,1,2055,A man standing next to a refrigerator in a kitchen.,M,0,0,MSR-VTT-videoTestVideo_video8456-shot1_1,Images/MSR-VTT-videoTestVideo_video8456-shot1_1/img64.jpg,Images/MSR-VTT-videoTestVideo_video8456-shot1_1/img70.jpg,Images/MSR-VTT-videoTestVideo_video8456-shot1_1/img74.jpg,Images/MSR-VTT-videoTestVideo_video8456-shot1_1/img81.jpg,Images/MSR-VTT-videoTestVideo_video8456-shot1_1/img86.jpg,Images/MSR-VTT-videoTestVideo_video8456-shot1_1/img93.jpg,Images/MSR-VTT-videoTestVideo_video8456-shot1_1/img98.jpg,Images/MSR-VTT-videoTestVideo_video8456-shot1_1/img102.jpg,Images/MSR-VTT-videoTestVideo_video8456-shot1_1/img105.jpg,Images/MSR-VTT-videoTestVideo_video8456-shot1_1/img111.jpg,656,3,0,2022-06-15_04h10.23.786,annotation,2021.2.3,Win32,60.0024001
,,,,,,,,,,,,,,,,,0.524444444,-0.172222222,1,0,0,image_9,0,23,23,25,1,678,"There are two men with beanies on the right of the image, one is wearing glasses with his nose not visible and the other is looking down with white text on his face.",H,0,8,MSR-VTT-videoTestVideo_video9235-shot2_0,Images/MSR-VTT-videoTestVideo_video9235-shot2_0/img2.jpg,Images/MSR-VTT-videoTestVideo_video9235-shot2_0/img4.jpg,Images/MSR-VTT-videoTestVideo_video9235-shot2_0/img8.jpg,Images/MSR-VTT-videoTestVideo_video9235-shot2_0/img22.jpg,Images/MSR-VTT-videoTestVideo_video9235-shot2_0/img25.jpg,Images/MSR-VTT-videoTestVideo_video9235-shot2_0/img26.jpg,Images/MSR-VTT-videoTestVideo_video9235-shot2_0/img33.jpg,Images/MSR-VTT-videoTestVideo_video9235-shot2_0/img39.jpg,Images/MSR-VTT-videoTestVideo_video9235-shot2_0/img45.jpg,Images/MSR-VTT-videoTestVideo_video9235-shot2_0/img52.jpg,260,3,0,2022-06-15_04h10.23.786,annotation,2021.2.3,Win32,60.0024001
,,,,,,,,,,,,,,,,,-0.004444444,0.14,1,0,0,image_2,0,24,24,4,1,710,The woman in blue walking down the aisle is roughly even with a black object on the ground on the right side of the aisle.  Both of her feet are completely on the ground. ,H,0,8,video-storytelling-videowedding_Bp8t824h5NE-shot45_3,Images/video-storytelling-videowedding_Bp8t824h5NE-shot45_3/img600.jpg,Images/video-storytelling-videowedding_Bp8t824h5NE-shot45_3/img631.jpg,Images/video-storytelling-videowedding_Bp8t824h5NE-shot45_3/img646.jpg,Images/video-storytelling-videowedding_Bp8t824h5NE-shot45_3/img659.jpg,Images/video-storytelling-videowedding_Bp8t824h5NE-shot45_3/img670.jpg,Images/video-storytelling-videowedding_Bp8t824h5NE-shot45_3/img689.jpg,Images/video-storytelling-videowedding_Bp8t824h5NE-shot45_3/img714.jpg,Images/video-storytelling-videowedding_Bp8t824h5NE-shot45_3/img737.jpg,Images/video-storytelling-videowedding_Bp8t824h5NE-shot45_3/img765.jpg,Images/video-storytelling-videowedding_Bp8t824h5NE-shot45_3/img785.jpg,1610,3,0,2022-06-15_04h10.23.786,annotation,2021.2.3,Win32,60.0024001
,,,,,,,,,,,,,,,,,0.205555556,-0.134444444,1,0,0,image_8,0,25,25,33,1,1571,A baby playing with a cell phone in a room.,M,0,5,video-storytelling-videochristmas_5RR_sRzKODA-shot30_7,Images/video-storytelling-videochristmas_5RR_sRzKODA-shot30_7/img394.jpg,Images/video-storytelling-videochristmas_5RR_sRzKODA-shot30_7/img401.jpg,Images/video-storytelling-videochristmas_5RR_sRzKODA-shot30_7/img405.jpg,Images/video-storytelling-videochristmas_5RR_sRzKODA-shot30_7/img406.jpg,Images/video-storytelling-videochristmas_5RR_sRzKODA-shot30_7/img408.jpg,Images/video-storytelling-videochristmas_5RR_sRzKODA-shot30_7/img411.jpg,Images/video-storytelling-videochristmas_5RR_sRzKODA-shot30_7/img416.jpg,Images/video-storytelling-videochristmas_5RR_sRzKODA-shot30_7/img422.jpg,Images/video-storytelling-videochristmas_5RR_sRzKODA-shot30_7/img423.jpg,Images/video-storytelling-videochristmas_5RR_sRzKODA-shot30_7/img425.jpg,630,3,0,2022-06-15_04h10.23.786,annotation,2021.2.3,Win32,60.0024001
,,,,,,,,,,,,,,,,,-0.224444444,-0.135555556,1,0,0,image_6,0,26,26,44,1,1086,A little boy with a Mickey Mouse hat on his head.,M,0,7,video-storytelling-videobirthday__amwPjAcoC8-shot29_0,Images/video-storytelling-videobirthday__amwPjAcoC8-shot29_0/img0.jpg,Images/video-storytelling-videobirthday__amwPjAcoC8-shot29_0/img19.jpg,Images/video-storytelling-videobirthday__amwPjAcoC8-shot29_0/img56.jpg,Images/video-storytelling-videobirthday__amwPjAcoC8-shot29_0/img81.jpg,Images/video-storytelling-videobirthday__amwPjAcoC8-shot29_0/img86.jpg,Images/video-storytelling-videobirthday__amwPjAcoC8-shot29_0/img93.jpg,Images/video-storytelling-videobirthday__amwPjAcoC8-shot29_0/img105.jpg,Images/video-storytelling-videobirthday__amwPjAcoC8-shot29_0/img111.jpg,Images/video-storytelling-videobirthday__amwPjAcoC8-shot29_0/img119.jpg,Images/video-storytelling-videobirthday__amwPjAcoC8-shot29_0/img130.jpg,74,3,0,2022-06-15_04h10.23.786,annotation,2021.2.3,Win32,60.0024001
,,,,,,,,,,,,,,,,,-0.012222222,0.142222222,1,0,0,image_2,0,27,27,9,1,1475,A person holding a miniature miniature toy on top of a plate.,M,1,7,MSR-VTT-videoTestVideo_video8773-shot1_3,Images/MSR-VTT-videoTestVideo_video8773-shot1_3/img278.jpg,Images/MSR-VTT-videoTestVideo_video8773-shot1_3/img294.jpg,Images/MSR-VTT-videoTestVideo_video8773-shot1_3/img305.jpg,Images/MSR-VTT-videoTestVideo_video8773-shot1_3/img315.jpg,Images/MSR-VTT-videoTestVideo_video8773-shot1_3/img325.jpg,Images/MSR-VTT-videoTestVideo_video8773-shot1_3/img339.jpg,Images/MSR-VTT-videoTestVideo_video8773-shot1_3/img349.jpg,Images/MSR-VTT-videoTestVideo_video8773-shot1_3/img380.jpg,Images/MSR-VTT-videoTestVideo_video8773-shot1_3/img386.jpg,Images/MSR-VTT-videoTestVideo_video8773-shot1_3/img401.jpg,319,3,0,2022-06-15_04h10.23.786,annotation,2021.2.3,Win32,60.0024001
,,,,,,,,,,,,,,,,,-0.03,0.153333333,1,0,0,image_2,0,28,28,52,1,1069,A person holding a remote holding a video game controller.,M,1,7,MSR-VTT-videoTestVideo_video9799-shot1_0,Images/MSR-VTT-videoTestVideo_video9799-shot1_0/img0.jpg,Images/MSR-VTT-videoTestVideo_video9799-shot1_0/img24.jpg,Images/MSR-VTT-videoTestVideo_video9799-shot1_0/img34.jpg,Images/MSR-VTT-videoTestVideo_video9799-shot1_0/img36.jpg,Images/MSR-VTT-videoTestVideo_video9799-shot1_0/img37.jpg,Images/MSR-VTT-videoTestVideo_video9799-shot1_0/img38.jpg,Images/MSR-VTT-videoTestVideo_video9799-shot1_0/img39.jpg,Images/MSR-VTT-videoTestVideo_video9799-shot1_0/img43.jpg,Images/MSR-VTT-videoTestVideo_video9799-shot1_0/img46.jpg,Images/MSR-VTT-videoTestVideo_video9799-shot1_0/img49.jpg,1133,3,0,2022-06-15_04h10.23.786,annotation,2021.2.3,Win32,60.0024001
,,,,,,,,,,,,,,,,,0.281111111,-0.133333333,1,0,0,image_8,0,29,29,54,1,1402,A man standing on top of a rock near a waterfall.,M,0,8,video-storytelling-videocamping_dBXYM3dQTSo-shot39_2,Images/video-storytelling-videocamping_dBXYM3dQTSo-shot39_2/img87.jpg,Images/video-storytelling-videocamping_dBXYM3dQTSo-shot39_2/img89.jpg,Images/video-storytelling-videocamping_dBXYM3dQTSo-shot39_2/img92.jpg,Images/video-storytelling-videocamping_dBXYM3dQTSo-shot39_2/img99.jpg,Images/video-storytelling-videocamping_dBXYM3dQTSo-shot39_2/img101.jpg,Images/video-storytelling-videocamping_dBXYM3dQTSo-shot39_2/img106.jpg,Images/video-storytelling-videocamping_dBXYM3dQTSo-shot39_2/img115.jpg,Images/video-storytelling-videocamping_dBXYM3dQTSo-shot39_2/img134.jpg,Images/video-storytelling-videocamping_dBXYM3dQTSo-shot39_2/img150.jpg,Images/video-storytelling-videocamping_dBXYM3dQTSo-shot39_2/img166.jpg,1336,3,0,2022-06-15_04h10.23.786,annotation,2021.2.3,Win32,60.0024001
,,,,,,,,,,,,,,,,,0.234444444,0.143333333,1,0,0,image_3,0,30,30,27,1,104,the car is positioned facing directly to the left in between two safety cones,H,1,9,MSR-VTT-videoTestVideo_video7464-shot1_1,Images/MSR-VTT-videoTestVideo_video7464-shot1_1/img245.jpg,Images/MSR-VTT-videoTestVideo_video7464-shot1_1/img248.jpg,Images/MSR-VTT-videoTestVideo_video7464-shot1_1/img250.jpg,Images/MSR-VTT-videoTestVideo_video7464-shot1_1/img254.jpg,Images/MSR-VTT-videoTestVideo_video7464-shot1_1/img257.jpg,Images/MSR-VTT-videoTestVideo_video7464-shot1_1/img269.jpg,Images/MSR-VTT-videoTestVideo_video7464-shot1_1/img274.jpg,Images/MSR-VTT-videoTestVideo_video7464-shot1_1/img288.jpg,Images/MSR-VTT-videoTestVideo_video7464-shot1_1/img304.jpg,Images/MSR-VTT-videoTestVideo_video7464-shot1_1/img307.jpg,2030,3,0,2022-06-15_04h10.23.786,annotation,2021.2.3,Win32,60.0024001
,,,,,,,,,,,,,,,,,0.253333333,-0.192222222,1,0,0,image_8,0,31,31,29,1,182,No people are seen in the shot.  There is a bit of a blue chair on the far left and a black chair in the center. ,H,0,8,video-storytelling-videocamping_1OzbiB1TIWI-shot11_7,Images/video-storytelling-videocamping_1OzbiB1TIWI-shot11_7/img377.jpg,Images/video-storytelling-videocamping_1OzbiB1TIWI-shot11_7/img384.jpg,Images/video-storytelling-videocamping_1OzbiB1TIWI-shot11_7/img385.jpg,Images/video-storytelling-videocamping_1OzbiB1TIWI-shot11_7/img387.jpg,Images/video-storytelling-videocamping_1OzbiB1TIWI-shot11_7/img389.jpg,Images/video-storytelling-videocamping_1OzbiB1TIWI-shot11_7/img391.jpg,Images/video-storytelling-videocamping_1OzbiB1TIWI-shot11_7/img392.jpg,Images/video-storytelling-videocamping_1OzbiB1TIWI-shot11_7/img393.jpg,Images/video-storytelling-videocamping_1OzbiB1TIWI-shot11_7/img396.jpg,Images/video-storytelling-videocamping_1OzbiB1TIWI-shot11_7/img398.jpg,1913,3,0,2022-06-15_04h10.23.786,annotation,2021.2.3,Win32,60.0024001
,,,,,,,,,,,,,,,,,-0.291111111,0.164444444,1,0,0,image_1,0,32,32,5,1,1016,The pan is empty so far but there is a hand with a clear bottle over it. There is no text below the pan. ,H,0,1,YouCook-video0061-shot10_0,Images/YouCook-video0061-shot10_0/img0.jpg,Images/YouCook-video0061-shot10_0/img26.jpg,Images/YouCook-video0061-shot10_0/img28.jpg,Images/YouCook-video0061-shot10_0/img247.jpg,Images/YouCook-video0061-shot10_0/img274.jpg,Images/YouCook-video0061-shot10_0/img283.jpg,Images/YouCook-video0061-shot10_0/img291.jpg,Images/YouCook-video0061-shot10_0/img324.jpg,Images/YouCook-video0061-shot10_0/img347.jpg,Images/YouCook-video0061-shot10_0/img394.jpg,896,3,0,2022-06-15_04h10.23.786,annotation,2021.2.3,Win32,60.0024001
,,,,,,,,,,,,,,,,,0.25,-0.172222222,1,0,0,image_8,0,33,33,17,1,407,"The person is standing straight, not holding anything, up with both feet on the ground. His left foot is fully visible in front of him on the floor.",H,1,9,MSR-VTT-videoTestVideo_video7652-shot1_0,Images/MSR-VTT-videoTestVideo_video7652-shot1_0/img0.jpg,Images/MSR-VTT-videoTestVideo_video7652-shot1_0/img3.jpg,Images/MSR-VTT-videoTestVideo_video7652-shot1_0/img11.jpg,Images/MSR-VTT-videoTestVideo_video7652-shot1_0/img13.jpg,Images/MSR-VTT-videoTestVideo_video7652-shot1_0/img17.jpg,Images/MSR-VTT-videoTestVideo_video7652-shot1_0/img24.jpg,Images/MSR-VTT-videoTestVideo_video7652-shot1_0/img32.jpg,Images/MSR-VTT-videoTestVideo_video7652-shot1_0/img45.jpg,Images/MSR-VTT-videoTestVideo_video7652-shot1_0/img53.jpg,Images/MSR-VTT-videoTestVideo_video7652-shot1_0/img55.jpg,173,3,0,2022-06-15_04h10.23.786,annotation,2021.2.3,Win32,60.0024001
,,,,,,,,,,,,,,,,,-0.478888889,-0.123333333,1,0,0,image_5,0,34,34,49,1,239,About a quarter of the thumb is visible over the index finger while the pinky is not visible at all.,H,0,4,MSR-VTT-videoTestVideo_video9528-shot1_0,Images/MSR-VTT-videoTestVideo_video9528-shot1_0/img0.jpg,Images/MSR-VTT-videoTestVideo_video9528-shot1_0/img6.jpg,Images/MSR-VTT-videoTestVideo_video9528-shot1_0/img16.jpg,Images/MSR-VTT-videoTestVideo_video9528-shot1_0/img25.jpg,Images/MSR-VTT-videoTestVideo_video9528-shot1_0/img52.jpg,Images/MSR-VTT-videoTestVideo_video9528-shot1_0/img55.jpg,Images/MSR-VTT-videoTestVideo_video9528-shot1_0/img82.jpg,Images/MSR-VTT-videoTestVideo_video9528-shot1_0/img140.jpg,Images/MSR-VTT-videoTestVideo_video9528-shot1_0/img167.jpg,Images/MSR-VTT-videoTestVideo_video9528-shot1_0/img180.jpg,800,3,0,2022-06-15_04h10.23.786,annotation,2021.2.3,Win32,60.0024001
,,,,,,,,,,,,,,,,,0.498888889,-0.163333333,1,0,0,image_9,0,35,35,15,1,120,The batter is touching the parchment paper inside the cake tin. ,H,0,8,YouCook-video0008-shot2_0,Images/YouCook-video0008-shot2_0/img0.jpg,Images/YouCook-video0008-shot2_0/img49.jpg,Images/YouCook-video0008-shot2_0/img56.jpg,Images/YouCook-video0008-shot2_0/img71.jpg,Images/YouCook-video0008-shot2_0/img78.jpg,Images/YouCook-video0008-shot2_0/img215.jpg,Images/YouCook-video0008-shot2_0/img223.jpg,Images/YouCook-video0008-shot2_0/img259.jpg,Images/YouCook-video0008-shot2_0/img293.jpg,Images/YouCook-video0008-shot2_0/img339.jpg,301,3,0,2022-06-15_04h10.23.786,annotation,2021.2.3,Win32,60.0024001
,,,,,,,,,,,,,,,,,-0.196666667,0.147777778,1,0,0,image_1,0,36,36,22,1,20,the lady on the right can be seen but her face is not visible but you can see her neck,H,0,1,MSR-VTT-videoTestVideo_video9560-shot1_0,Images/MSR-VTT-videoTestVideo_video9560-shot1_0/img0.jpg,Images/MSR-VTT-videoTestVideo_video9560-shot1_0/img6.jpg,Images/MSR-VTT-videoTestVideo_video9560-shot1_0/img11.jpg,Images/MSR-VTT-videoTestVideo_video9560-shot1_0/img16.jpg,Images/MSR-VTT-videoTestVideo_video9560-shot1_0/img23.jpg,Images/MSR-VTT-videoTestVideo_video9560-shot1_0/img30.jpg,Images/MSR-VTT-videoTestVideo_video9560-shot1_0/img46.jpg,Images/MSR-VTT-videoTestVideo_video9560-shot1_0/img56.jpg,Images/MSR-VTT-videoTestVideo_video9560-shot1_0/img69.jpg,Images/MSR-VTT-videoTestVideo_video9560-shot1_0/img73.jpg,844,3,0,2022-06-15_04h10.23.786,annotation,2021.2.3,Win32,60.0024001
,,,,,,,,,,,,,,,,,0.445555556,-0.135555556,1,0,0,image_9,0,37,37,60,1,2,Green type writer with a red tape. ,H,,9,open-images-531_0dd4eb59d465a8be,Checks/check3/open-images-503_1ccd6fa641154ebbimg7.jpg,Checks/check3/open-images-1852_00faf52058ad28b8img4.jpg,Checks/check3/open-images-386_1b2e28d6d994603eimg1.jpg,Checks/check3/open-images-471_1121e9f97c200ac0img8.jpg,Checks/check3/open-images-1886_3db71eaddb618934img8.jpg,Checks/check3/open-images-1696_20a4ebf0c0f76b05img6.jpg,Checks/check3/open-images-2447_128483a48e1552f4img6.jpg,Checks/check3/open-images-2994_9965cbf8aa20bda0img2.jpg,Checks/check3/open-images-1068_03d63613107970b3img6.jpg,Checks/check3/open-images-531_0dd4eb59d465a8beimg9.jpg,,,1,2022-06-15_04h10.23.786,annotation,2021.2.3,Win32,60.0024001
,,,,,,,,,,,,,,,,,-0.237777778,0.126666667,1,0,0,image_1,0,38,38,32,1,957,A person can be seen running to get into a red vehicle.  Four small yellow rectangular lights are seen on the top of the red truck. ,H,0,1,MSR-VTT-videoTestVideo_video7689-shot1_0,Images/MSR-VTT-videoTestVideo_video7689-shot1_0/img0.jpg,Images/MSR-VTT-videoTestVideo_video7689-shot1_0/img5.jpg,Images/MSR-VTT-videoTestVideo_video7689-shot1_0/img6.jpg,Images/MSR-VTT-videoTestVideo_video7689-shot1_0/img7.jpg,Images/MSR-VTT-videoTestVideo_video7689-shot1_0/img8.jpg,Images/MSR-VTT-videoTestVideo_video7689-shot1_0/img11.jpg,Images/MSR-VTT-videoTestVideo_video7689-shot1_0/img18.jpg,Images/MSR-VTT-videoTestVideo_video7689-shot1_0/img39.jpg,Images/MSR-VTT-videoTestVideo_video7689-shot1_0/img42.jpg,Images/MSR-VTT-videoTestVideo_video7689-shot1_0/img52.jpg,1086,3,0,2022-06-15_04h10.23.786,annotation,2021.2.3,Win32,60.0024001
,,,,,,,,,,,,,,,,,0.225555556,-0.178888889,1,0,0,image_8,0,39,39,50,1,879,"There is text at the bottom of the screen, and the person is in the process of dumping black beans into the bowl, with beans pouring out - half on the salad.. The bowl they are holding is not yet empty.",H,0,5,YouCook-video0034-shot18_0,Images/YouCook-video0034-shot18_0/img0.jpg,Images/YouCook-video0034-shot18_0/img32.jpg,Images/YouCook-video0034-shot18_0/img100.jpg,Images/YouCook-video0034-shot18_0/img164.jpg,Images/YouCook-video0034-shot18_0/img172.jpg,Images/YouCook-video0034-shot18_0/img200.jpg,Images/YouCook-video0034-shot18_0/img215.jpg,Images/YouCook-video0034-shot18_0/img236.jpg,Images/YouCook-video0034-shot18_0/img250.jpg,Images/YouCook-video0034-shot18_0/img294.jpg,457,3,0,2022-06-15_04h10.23.786,annotation,2021.2.3,Win32,60.0024001
,,,,,,,,,,,,,,,,,0.294444444,0.121111111,1,0,0,image_3,0,40,40,57,1,1179,A boy and girl are hugging each other on a beach.,M,0,3,MSR-VTT-videoTestVideo_video8144-shot2_1,Images/MSR-VTT-videoTestVideo_video8144-shot2_1/img33.jpg,Images/MSR-VTT-videoTestVideo_video8144-shot2_1/img35.jpg,Images/MSR-VTT-videoTestVideo_video8144-shot2_1/img38.jpg,Images/MSR-VTT-videoTestVideo_video8144-shot2_1/img41.jpg,Images/MSR-VTT-videoTestVideo_video8144-shot2_1/img43.jpg,Images/MSR-VTT-videoTestVideo_video8144-shot2_1/img45.jpg,Images/MSR-VTT-videoTestVideo_video8144-shot2_1/img47.jpg,Images/MSR-VTT-videoTestVideo_video8144-shot2_1/img49.jpg,Images/MSR-VTT-videoTestVideo_video8144-shot2_1/img50.jpg,Images/MSR-VTT-videoTestVideo_video8144-shot2_1/img51.jpg,1882,3,0,2022-06-15_04h10.23.786,annotation,2021.2.3,Win32,60.0024001
,,,,,,,,,,,,,,,,,-0.458888889,0.151111111,1,0,0,image_0,0,41,41,43,1,1633,A crocheted piece of clothing that is sitting on top of a tree.,M,0,9,video-storytelling-videocamping_EytINruY3-U-shot31_1,Images/video-storytelling-videocamping_EytINruY3-U-shot31_1/img204.jpg,Images/video-storytelling-videocamping_EytINruY3-U-shot31_1/img205.jpg,Images/video-storytelling-videocamping_EytINruY3-U-shot31_1/img250.jpg,Images/video-storytelling-videocamping_EytINruY3-U-shot31_1/img268.jpg,Images/video-storytelling-videocamping_EytINruY3-U-shot31_1/img330.jpg,Images/video-storytelling-videocamping_EytINruY3-U-shot31_1/img411.jpg,Images/video-storytelling-videocamping_EytINruY3-U-shot31_1/img461.jpg,Images/video-storytelling-videocamping_EytINruY3-U-shot31_1/img492.jpg,Images/video-storytelling-videocamping_EytINruY3-U-shot31_1/img514.jpg,Images/video-storytelling-videocamping_EytINruY3-U-shot31_1/img535.jpg,1225,3,0,2022-06-15_04h10.23.786,annotation,2021.2.3,Win32,60.0024001
,,,,,,,,,,,,,,,,,-0.464444444,-0.165555556,1,0,0,image_5,0,42,42,21,1,49,The little boy has brought the green object away from his mouth and part of it is off the bottom part of the image. ,H,0,8,MSR-VTT-videoTestVideo_video7542-shot9_0,Images/MSR-VTT-videoTestVideo_video7542-shot9_0/img0.jpg,Images/MSR-VTT-videoTestVideo_video7542-shot9_0/img5.jpg,Images/MSR-VTT-videoTestVideo_video7542-shot9_0/img11.jpg,Images/MSR-VTT-videoTestVideo_video7542-shot9_0/img16.jpg,Images/MSR-VTT-videoTestVideo_video7542-shot9_0/img32.jpg,Images/MSR-VTT-videoTestVideo_video7542-shot9_0/img45.jpg,Images/MSR-VTT-videoTestVideo_video7542-shot9_0/img48.jpg,Images/MSR-VTT-videoTestVideo_video7542-shot9_0/img52.jpg,Images/MSR-VTT-videoTestVideo_video7542-shot9_0/img65.jpg,Images/MSR-VTT-videoTestVideo_video7542-shot9_0/img70.jpg,1424,3,0,2022-06-15_04h10.23.786,annotation,2021.2.3,Win32,60.0024001
,,,,,,,,,,,,,,,,,-0.286666667,0.124444444,1,0,0,image_1,0,43,43,46,1,828,The dog is looking to the right.  It's head is perked up and is much higher than the rest of its body.  The head of the dog is covering a lot of the shining reflection in the water. ,H,0,5,video-storytelling-videocamping_dBXYM3dQTSo-shot42_0,Images/video-storytelling-videocamping_dBXYM3dQTSo-shot42_0/img0.jpg,Images/video-storytelling-videocamping_dBXYM3dQTSo-shot42_0/img10.jpg,Images/video-storytelling-videocamping_dBXYM3dQTSo-shot42_0/img20.jpg,Images/video-storytelling-videocamping_dBXYM3dQTSo-shot42_0/img27.jpg,Images/video-storytelling-videocamping_dBXYM3dQTSo-shot42_0/img35.jpg,Images/video-storytelling-videocamping_dBXYM3dQTSo-shot42_0/img44.jpg,Images/video-storytelling-videocamping_dBXYM3dQTSo-shot42_0/img55.jpg,Images/video-storytelling-videocamping_dBXYM3dQTSo-shot42_0/img58.jpg,Images/video-storytelling-videocamping_dBXYM3dQTSo-shot42_0/img60.jpg,Images/video-storytelling-videocamping_dBXYM3dQTSo-shot42_0/img65.jpg,1146,3,0,2022-06-15_04h10.23.786,annotation,2021.2.3,Win32,60.0024001
,,,,,,,,,,,,,,,,,-0.258888889,-0.148888889,1,0,0,image_6,0,44,44,10,1,1588,A person holding a bowl of cereal in a cup.,M,0,4,MSR-VTT-videoTestVideo_video7785-shot1_3,Images/MSR-VTT-videoTestVideo_video7785-shot1_3/img269.jpg,Images/MSR-VTT-videoTestVideo_video7785-shot1_3/img276.jpg,Images/MSR-VTT-videoTestVideo_video7785-shot1_3/img278.jpg,Images/MSR-VTT-videoTestVideo_video7785-shot1_3/img282.jpg,Images/MSR-VTT-videoTestVideo_video7785-shot1_3/img285.jpg,Images/MSR-VTT-videoTestVideo_video7785-shot1_3/img289.jpg,Images/MSR-VTT-videoTestVideo_video7785-shot1_3/img291.jpg,Images/MSR-VTT-videoTestVideo_video7785-shot1_3/img297.jpg,Images/MSR-VTT-videoTestVideo_video7785-shot1_3/img318.jpg,Images/MSR-VTT-videoTestVideo_video7785-shot1_3/img320.jpg,1434,3,0,2022-06-15_04h10.23.786,annotation,2021.2.3,Win32,60.0024001
,,,,,,,,,,,,,,,,,0.213333333,-0.205555556,1,0,0,image_8,0,45,45,6,1,1684,A group of people standing in front of a crowd of people.,M,0,3,video-storytelling-videowedding_Bp8t824h5NE-shot58_1,Images/video-storytelling-videowedding_Bp8t824h5NE-shot58_1/img27.jpg,Images/video-storytelling-videowedding_Bp8t824h5NE-shot58_1/img33.jpg,Images/video-storytelling-videowedding_Bp8t824h5NE-shot58_1/img45.jpg,Images/video-storytelling-videowedding_Bp8t824h5NE-shot58_1/img56.jpg,Images/video-storytelling-videowedding_Bp8t824h5NE-shot58_1/img58.jpg,Images/video-storytelling-videowedding_Bp8t824h5NE-shot58_1/img59.jpg,Images/video-storytelling-videowedding_Bp8t824h5NE-shot58_1/img62.jpg,Images/video-storytelling-videowedding_Bp8t824h5NE-shot58_1/img63.jpg,Images/video-storytelling-videowedding_Bp8t824h5NE-shot58_1/img65.jpg,Images/video-storytelling-videowedding_Bp8t824h5NE-shot58_1/img67.jpg,184,3,0,2022-06-15_04h10.23.786,annotation,2021.2.3,Win32,60.0024001
,,,,,,,,,,,,,,,,,-0.282222222,-0.092222222,1,0,0,image_6,0,46,46,3,1,142,Man is looking to his left with his hand below his chin at the top of his shirt with only his pointer finger and tip of his thumb showing.,H,0,3,MSR-VTT-videoTestVideo_video8721-shot1_0,Images/MSR-VTT-videoTestVideo_video8721-shot1_0/img0.jpg,Images/MSR-VTT-videoTestVideo_video8721-shot1_0/img11.jpg,Images/MSR-VTT-videoTestVideo_video8721-shot1_0/img46.jpg,Images/MSR-VTT-videoTestVideo_video8721-shot1_0/img56.jpg,Images/MSR-VTT-videoTestVideo_video8721-shot1_0/img69.jpg,Images/MSR-VTT-videoTestVideo_video8721-shot1_0/img81.jpg,Images/MSR-VTT-videoTestVideo_video8721-shot1_0/img94.jpg,Images/MSR-VTT-videoTestVideo_video8721-shot1_0/img121.jpg,Images/MSR-VTT-videoTestVideo_video8721-shot1_0/img131.jpg,Images/MSR-VTT-videoTestVideo_video8721-shot1_0/img184.jpg,1551,3,0,2022-06-15_04h10.23.786,annotation,2021.2.3,Win32,60.0024001
,,,,,,,,,,,,,,,,,-0.262222222,-0.151111111,1,0,0,image_6,0,47,47,42,1,16,The man is facing left with both feet slightly back and no gap visible between the legs. The background is orange. The woman's face is pointed to the left.,H,0,7,MSR-VTT-videoTestVideo_video9219-shot1_3,Images/MSR-VTT-videoTestVideo_video9219-shot1_3/img256.jpg,Images/MSR-VTT-videoTestVideo_video9219-shot1_3/img260.jpg,Images/MSR-VTT-videoTestVideo_video9219-shot1_3/img262.jpg,Images/MSR-VTT-videoTestVideo_video9219-shot1_3/img268.jpg,Images/MSR-VTT-videoTestVideo_video9219-shot1_3/img272.jpg,Images/MSR-VTT-videoTestVideo_video9219-shot1_3/img286.jpg,Images/MSR-VTT-videoTestVideo_video9219-shot1_3/img291.jpg,Images/MSR-VTT-videoTestVideo_video9219-shot1_3/img302.jpg,Images/MSR-VTT-videoTestVideo_video9219-shot1_3/img315.jpg,Images/MSR-VTT-videoTestVideo_video9219-shot1_3/img328.jpg,412,3,0,2022-06-15_04h10.23.786,annotation,2021.2.3,Win32,60.0024001
,,,,,,,,,,,,,,,,,0.277777778,-0.165555556,1,0,0,image_8,0,48,48,20,1,409,No second image can be seen. The wagon being pulled has the standing bearded man to the left of the pillar. His entire face is to the left of it.,H,0,3,MSR-VTT-videoTestVideo_video9297-shot0_1,Images/MSR-VTT-videoTestVideo_video9297-shot0_1/img45.jpg,Images/MSR-VTT-videoTestVideo_video9297-shot0_1/img76.jpg,Images/MSR-VTT-videoTestVideo_video9297-shot0_1/img78.jpg,Images/MSR-VTT-videoTestVideo_video9297-shot0_1/img80.jpg,Images/MSR-VTT-videoTestVideo_video9297-shot0_1/img82.jpg,Images/MSR-VTT-videoTestVideo_video9297-shot0_1/img91.jpg,Images/MSR-VTT-videoTestVideo_video9297-shot0_1/img93.jpg,Images/MSR-VTT-videoTestVideo_video9297-shot0_1/img98.jpg,Images/MSR-VTT-videoTestVideo_video9297-shot0_1/img106.jpg,Images/MSR-VTT-videoTestVideo_video9297-shot0_1/img115.jpg,1398,3,0,2022-06-15_04h10.23.786,annotation,2021.2.3,Win32,60.0024001
,,,,,,,,,,,,,,,,,-0.215555556,0.144444444,1,0,0,image_1,0,49,49,14,1,770,You can see a hand in front of a purple book.  The thumb on the hand is easily visible but the other fingers are very blurry. ,H,1,0,MSR-VTT-videoTestVideo_video7657-shot2_1,Images/MSR-VTT-videoTestVideo_video7657-shot2_1/img55.jpg,Images/MSR-VTT-videoTestVideo_video7657-shot2_1/img64.jpg,Images/MSR-VTT-videoTestVideo_video7657-shot2_1/img78.jpg,Images/MSR-VTT-videoTestVideo_video7657-shot2_1/img82.jpg,Images/MSR-VTT-videoTestVideo_video7657-shot2_1/img84.jpg,Images/MSR-VTT-videoTestVideo_video7657-shot2_1/img90.jpg,Images/MSR-VTT-videoTestVideo_video7657-shot2_1/img96.jpg,Images/MSR-VTT-videoTestVideo_video7657-shot2_1/img98.jpg,Images/MSR-VTT-videoTestVideo_video7657-shot2_1/img102.jpg,Images/MSR-VTT-videoTestVideo_video7657-shot2_1/img109.jpg,973,3,0,2022-06-15_04h10.23.786,annotation,2021.2.3,Win32,60.0024001
,,,,,,,,,,,,,,,,,-0.296666667,0.125555556,1,0,0,image_1,0,50,50,35,1,256,There is a person who has just appeared on the far left side of the image. You can only see a bit of his face but nothing he is carrying. ,H,1,1,MSR-VTT-videoTestVideo_video8129-shot1_3,Images/MSR-VTT-videoTestVideo_video8129-shot1_3/img421.jpg,Images/MSR-VTT-videoTestVideo_video8129-shot1_3/img425.jpg,Images/MSR-VTT-videoTestVideo_video8129-shot1_3/img435.jpg,Images/MSR-VTT-videoTestVideo_video8129-shot1_3/img441.jpg,Images/MSR-VTT-videoTestVideo_video8129-shot1_3/img446.jpg,Images/MSR-VTT-videoTestVideo_video8129-shot1_3/img450.jpg,Images/MSR-VTT-videoTestVideo_video8129-shot1_3/img454.jpg,Images/MSR-VTT-videoTestVideo_video8129-shot1_3/img457.jpg,Images/MSR-VTT-videoTestVideo_video8129-shot1_3/img462.jpg,Images/MSR-VTT-videoTestVideo_video8129-shot1_3/img464.jpg,1895,3,0,2022-06-15_04h10.23.786,annotation,2021.2.3,Win32,60.0024001
,,,,,,,,,,,,,,,,,-0.472222222,0.116666667,1,0,0,image_0,0,51,51,31,1,1650,A person holding a photo of a person's hair.,M,0,0,MSR-VTT-videoTestVideo_video8679-shot1_4,Images/MSR-VTT-videoTestVideo_video8679-shot1_4/img94.jpg,Images/MSR-VTT-videoTestVideo_video8679-shot1_4/img95.jpg,Images/MSR-VTT-videoTestVideo_video8679-shot1_4/img96.jpg,Images/MSR-VTT-videoTestVideo_video8679-shot1_4/img99.jpg,Images/MSR-VTT-videoTestVideo_video8679-shot1_4/img107.jpg,Images/MSR-VTT-videoTestVideo_video8679-shot1_4/img110.jpg,Images/MSR-VTT-videoTestVideo_video8679-shot1_4/img112.jpg,Images/MSR-VTT-videoTestVideo_video8679-shot1_4/img116.jpg,Images/MSR-VTT-videoTestVideo_video8679-shot1_4/img119.jpg,Images/MSR-VTT-videoTestVideo_video8679-shot1_4/img120.jpg,784,3,0,2022-06-15_04h10.23.786,annotation,2021.2.3,Win32,60.0024001
,,,,,,,,,,,,,,,,,-0.258888889,-0.156666667,1,0,0,image_6,0,52,52,19,1,189,Two men facing each other.,H,1,6,MSR-VTT-videoTestVideo_video8917-shot1_0,Images/MSR-VTT-videoTestVideo_video8917-shot1_0/img0.jpg,Images/MSR-VTT-videoTestVideo_video8917-shot1_0/img25.jpg,Images/MSR-VTT-videoTestVideo_video8917-shot1_0/img69.jpg,Images/MSR-VTT-videoTestVideo_video8917-shot1_0/img75.jpg,Images/MSR-VTT-videoTestVideo_video8917-shot1_0/img87.jpg,Images/MSR-VTT-videoTestVideo_video8917-shot1_0/img100.jpg,Images/MSR-VTT-videoTestVideo_video8917-shot1_0/img107.jpg,Images/MSR-VTT-videoTestVideo_video8917-shot1_0/img151.jpg,Images/MSR-VTT-videoTestVideo_video8917-shot1_0/img198.jpg,Images/MSR-VTT-videoTestVideo_video8917-shot1_0/img261.jpg,1655,3,0,2022-06-15_04h10.23.786,annotation,2021.2.3,Win32,60.0024001
,,,,,,,,,,,,,,,,,-0.512222222,-0.157777778,1,0,0,image_5,0,53,53,1,1,1632,A woman sitting on top of a bench in a park.,M,0,4,video-storytelling-videocamping_1OzbiB1TIWI-shot12_13,Images/video-storytelling-videocamping_1OzbiB1TIWI-shot12_13/img663.jpg,Images/video-storytelling-videocamping_1OzbiB1TIWI-shot12_13/img681.jpg,Images/video-storytelling-videocamping_1OzbiB1TIWI-shot12_13/img691.jpg,Images/video-storytelling-videocamping_1OzbiB1TIWI-shot12_13/img697.jpg,Images/video-storytelling-videocamping_1OzbiB1TIWI-shot12_13/img705.jpg,Images/video-storytelling-videocamping_1OzbiB1TIWI-shot12_13/img707.jpg,Images/video-storytelling-videocamping_1OzbiB1TIWI-shot12_13/img708.jpg,Images/video-storytelling-videocamping_1OzbiB1TIWI-shot12_13/img712.jpg,Images/video-storytelling-videocamping_1OzbiB1TIWI-shot12_13/img713.jpg,Images/video-storytelling-videocamping_1OzbiB1TIWI-shot12_13/img716.jpg,889,3,0,2022-06-15_04h10.23.786,annotation,2021.2.3,Win32,60.0024001
,,,,,,,,,,,,,,,,,0.236666667,0.185555556,1,0,0,image_3,0,54,54,26,1,1205,A photo of a person on a broom handle.,M,0,4,MSR-VTT-videoTestVideo_video9623-shot1_2,Images/MSR-VTT-videoTestVideo_video9623-shot1_2/img149.jpg,Images/MSR-VTT-videoTestVideo_video9623-shot1_2/img151.jpg,Images/MSR-VTT-videoTestVideo_video9623-shot1_2/img154.jpg,Images/MSR-VTT-videoTestVideo_video9623-shot1_2/img158.jpg,Images/MSR-VTT-videoTestVideo_video9623-shot1_2/img165.jpg,Images/MSR-VTT-videoTestVideo_video9623-shot1_2/img166.jpg,Images/MSR-VTT-videoTestVideo_video9623-shot1_2/img168.jpg,Images/MSR-VTT-videoTestVideo_video9623-shot1_2/img173.jpg,Images/MSR-VTT-videoTestVideo_video9623-shot1_2/img174.jpg,Images/MSR-VTT-videoTestVideo_video9623-shot1_2/img175.jpg,1308,3,0,2022-06-15_04h10.23.786,annotation,2021.2.3,Win32,60.0024001
,,,,,,,,,,,,,,,,,0.512222222,-0.217777778,1,0,0,image_9,0,55,55,0,1,260,There is lots of overlay with both pictures approximately equal in how well they are shown. ,H,0,2,MSR-VTT-videoTestVideo_video7710-shot0_0,Images/MSR-VTT-videoTestVideo_video7710-shot0_0/img0.jpg,Images/MSR-VTT-videoTestVideo_video7710-shot0_0/img2.jpg,Images/MSR-VTT-videoTestVideo_video7710-shot0_0/img3.jpg,Images/MSR-VTT-videoTestVideo_video7710-shot0_0/img4.jpg,Images/MSR-VTT-videoTestVideo_video7710-shot0_0/img6.jpg,Images/MSR-VTT-videoTestVideo_video7710-shot0_0/img12.jpg,Images/MSR-VTT-videoTestVideo_video7710-shot0_0/img16.jpg,Images/MSR-VTT-videoTestVideo_video7710-shot0_0/img20.jpg,Images/MSR-VTT-videoTestVideo_video7710-shot0_0/img46.jpg,Images/MSR-VTT-videoTestVideo_video7710-shot0_0/img57.jpg,151,3,0,2022-06-15_04h10.23.786,annotation,2021.2.3,Win32,60.0024001
,,,,,,,,,,,,,,,,,-0.24,0.156666667,1,0,0,image_1,0,56,56,40,1,577,The spoon is in the picture completely upside down. ,H,0,1,MSR-VTT-videoTestVideo_video7321-shot1_4,Images/MSR-VTT-videoTestVideo_video7321-shot1_4/img348.jpg,Images/MSR-VTT-videoTestVideo_video7321-shot1_4/img383.jpg,Images/MSR-VTT-videoTestVideo_video7321-shot1_4/img387.jpg,Images/MSR-VTT-videoTestVideo_video7321-shot1_4/img405.jpg,Images/MSR-VTT-videoTestVideo_video7321-shot1_4/img409.jpg,Images/MSR-VTT-videoTestVideo_video7321-shot1_4/img418.jpg,Images/MSR-VTT-videoTestVideo_video7321-shot1_4/img426.jpg,Images/MSR-VTT-videoTestVideo_video7321-shot1_4/img446.jpg,Images/MSR-VTT-videoTestVideo_video7321-shot1_4/img451.jpg,Images/MSR-VTT-videoTestVideo_video7321-shot1_4/img458.jpg,503,3,0,2022-06-15_04h10.23.786,annotation,2021.2.3,Win32,60.0024001
,,,,,,,,,,,,,,,,,-0.581111111,0.163333333,1,0,0,image_0,0,57,57,51,1,817,The tall metal pole is on the far left side of the picture. ,H,0,1,MSR-VTT-videoTestVideo_video9416-shot1_6,Images/MSR-VTT-videoTestVideo_video9416-shot1_6/img228.jpg,Images/MSR-VTT-videoTestVideo_video9416-shot1_6/img229.jpg,Images/MSR-VTT-videoTestVideo_video9416-shot1_6/img232.jpg,Images/MSR-VTT-videoTestVideo_video9416-shot1_6/img238.jpg,Images/MSR-VTT-videoTestVideo_video9416-shot1_6/img239.jpg,Images/MSR-VTT-videoTestVideo_video9416-shot1_6/img240.jpg,Images/MSR-VTT-videoTestVideo_video9416-shot1_6/img244.jpg,Images/MSR-VTT-videoTestVideo_video9416-shot1_6/img246.jpg,Images/MSR-VTT-videoTestVideo_video9416-shot1_6/img249.jpg,Images/MSR-VTT-videoTestVideo_video9416-shot1_6/img251.jpg,131,3,0,2022-06-15_04h10.23.786,annotation,2021.2.3,Win32,60.0024001
,,,,,,,,,,,,,,,,,-0.233333333,-0.152222222,1,0,0,image_6,0,58,58,7,1,1167,A woman holding a picture of herself on a computer screen.,M,0,0,MSR-VTT-videoTestVideo_video9211-shot1_0,Images/MSR-VTT-videoTestVideo_video9211-shot1_0/img0.jpg,Images/MSR-VTT-videoTestVideo_video9211-shot1_0/img2.jpg,Images/MSR-VTT-videoTestVideo_video9211-shot1_0/img6.jpg,Images/MSR-VTT-videoTestVideo_video9211-shot1_0/img9.jpg,Images/MSR-VTT-videoTestVideo_video9211-shot1_0/img14.jpg,Images/MSR-VTT-videoTestVideo_video9211-shot1_0/img17.jpg,Images/MSR-VTT-videoTestVideo_video9211-shot1_0/img22.jpg,Images/MSR-VTT-videoTestVideo_video9211-shot1_0/img28.jpg,Images/MSR-VTT-videoTestVideo_video9211-shot1_0/img32.jpg,Images/MSR-VTT-videoTestVideo_video9211-shot1_0/img38.jpg,228,3,0,2022-06-15_04h10.23.786,annotation,2021.2.3,Win32,60.0024001
,,,,,,,,,,,,,,,,,-0.007777778,-0.177777778,1,0,0,image_7,0,59,59,37,1,6,Half of the 2nd word of the text is faded and can't be read.  ,H,0,8,MSR-VTT-videoTestVideo_video8282-shot0_0,Images/MSR-VTT-videoTestVideo_video8282-shot0_0/img0.jpg,Images/MSR-VTT-videoTestVideo_video8282-shot0_0/img4.jpg,Images/MSR-VTT-videoTestVideo_video8282-shot0_0/img7.jpg,Images/MSR-VTT-videoTestVideo_video8282-shot0_0/img10.jpg,Images/MSR-VTT-videoTestVideo_video8282-shot0_0/img15.jpg,Images/MSR-VTT-videoTestVideo_video8282-shot0_0/img18.jpg,Images/MSR-VTT-videoTestVideo_video8282-shot0_0/img20.jpg,Images/MSR-VTT-videoTestVideo_video8282-shot0_0/img21.jpg,Images/MSR-VTT-videoTestVideo_video8282-shot0_0/img24.jpg,Images/MSR-VTT-videoTestVideo_video8282-shot0_0/img27.jpg,766,3,0,2022-06-15_04h10.23.786,annotation,2021.2.3,Win32,60.0024001
,,,,,,,,,,,,,,,,,0.546666667,0.081111111,1,0,0,image_4,0,60,60,28,1,232,You can only see the very edge of the red bat handle at the bottom.,H,0,3,video-storytelling-videobirthday__amwPjAcoC8-shot43_0,Images/video-storytelling-videobirthday__amwPjAcoC8-shot43_0/img0.jpg,Images/video-storytelling-videobirthday__amwPjAcoC8-shot43_0/img3.jpg,Images/video-storytelling-videobirthday__amwPjAcoC8-shot43_0/img5.jpg,Images/video-storytelling-videobirthday__amwPjAcoC8-shot43_0/img13.jpg,Images/video-storytelling-videobirthday__amwPjAcoC8-shot43_0/img17.jpg,Images/video-storytelling-videobirthday__amwPjAcoC8-shot43_0/img19.jpg,Images/video-storytelling-videobirthday__amwPjAcoC8-shot43_0/img21.jpg,Images/video-storytelling-videobirthday__amwPjAcoC8-shot43_0/img22.jpg,Images/video-storytelling-videobirthday__amwPjAcoC8-shot43_0/img23.jpg,Images/video-storytelling-videobirthday__amwPjAcoC8-shot43_0/img26.jpg,1244,3,0,2022-06-15_04h10.23.786,annotation,2021.2.3,Win32,60.0024001
,,,,,,,,,,,,,,,,,-0.242222222,-0.105555556,1,0,0,image_6,0,61,61,24,1,1236,A picture of a colorful sign hanging on the side of a road.,M,1,2,MSR-VTT-videoTestVideo_video8534-shot2_0,Images/MSR-VTT-videoTestVideo_video8534-shot2_0/img0.jpg,Images/MSR-VTT-videoTestVideo_video8534-shot2_0/img1.jpg,Images/MSR-VTT-videoTestVideo_video8534-shot2_0/img3.jpg,Images/MSR-VTT-videoTestVideo_video8534-shot2_0/img4.jpg,Images/MSR-VTT-videoTestVideo_video8534-shot2_0/img5.jpg,Images/MSR-VTT-videoTestVideo_video8534-shot2_0/img8.jpg,Images/MSR-VTT-videoTestVideo_video8534-shot2_0/img12.jpg,Images/MSR-VTT-videoTestVideo_video8534-shot2_0/img14.jpg,Images/MSR-VTT-videoTestVideo_video8534-shot2_0/img20.jpg,Images/MSR-VTT-videoTestVideo_video8534-shot2_0/img26.jpg,1644,3,0,2022-06-15_04h10.23.786,annotation,2021.2.3,Win32,60.0024001
,,,,,,,,,,,,,,,,,0.006666667,0.193333333,1,0,0,image_2,0,62,62,39,1,1096,A metal bowl with a metal pot on top of it.,M,0,8,MSR-VTT-videoTestVideo_video8062-shot1_2,Images/MSR-VTT-videoTestVideo_video8062-shot1_2/img372.jpg,Images/MSR-VTT-videoTestVideo_video8062-shot1_2/img375.jpg,Images/MSR-VTT-videoTestVideo_video8062-shot1_2/img387.jpg,Images/MSR-VTT-videoTestVideo_video8062-shot1_2/img394.jpg,Images/MSR-VTT-videoTestVideo_video8062-shot1_2/img401.jpg,Images/MSR-VTT-videoTestVideo_video8062-shot1_2/img455.jpg,Images/MSR-VTT-videoTestVideo_video8062-shot1_2/img471.jpg,Images/MSR-VTT-videoTestVideo_video8062-shot1_2/img473.jpg,Images/MSR-VTT-videoTestVideo_video8062-shot1_2/img476.jpg,Images/MSR-VTT-videoTestVideo_video8062-shot1_2/img492.jpg,1061,3,0,2022-06-15_04h10.23.786,annotation,2021.2.3,Win32,60.0024001
