mturk,key_resp_2.keys,key_resp_2.rt,key_resp_3.keys,key_resp_3.rt,mouse_2.x,mouse_2.y,mouse_2.leftButton,mouse_2.midButton,mouse_2.rightButton,mouse_2.clicked_name,key_resp_5.keys,key_resp_5.rt,key_resp.keys,key_resp.rt,key_resp_6.keys,key_resp_6.rt,mouse.x,mouse.y,mouse.leftButton,mouse.midButton,mouse.rightButton,mouse.clicked_name,trials.thisRepN,trials.thisTrialN,trials.thisN,trials.thisIndex,trials.ran,N,caption,class_caption,model_guessed,target_idx,image_set,img1,img2,img3,img4,img5,img6,img7,img8,img9,img10,Q_id,block,is_check,date,expName,psychopyVersion,OS,frameRate,key_resp_7.keys,key_resp_7.rt
4705444,space,23.553,space,35.876,0.2421875,0.095052083,1,0,0,ex4,space,13.06,space,47.65,space,4.766,0.010416667,0.174479167,1,0,0,image_2,0,0,0,51,1,1148,A small fire hydrant on the side of a road.,M,0,9,MSR-VTT-videoTestVideo_video7464-shot1_1,Images/MSR-VTT-videoTestVideo_video7464-shot1_1/img245.jpg,Images/MSR-VTT-videoTestVideo_video7464-shot1_1/img248.jpg,Images/MSR-VTT-videoTestVideo_video7464-shot1_1/img250.jpg,Images/MSR-VTT-videoTestVideo_video7464-shot1_1/img254.jpg,Images/MSR-VTT-videoTestVideo_video7464-shot1_1/img257.jpg,Images/MSR-VTT-videoTestVideo_video7464-shot1_1/img269.jpg,Images/MSR-VTT-videoTestVideo_video7464-shot1_1/img274.jpg,Images/MSR-VTT-videoTestVideo_video7464-shot1_1/img288.jpg,Images/MSR-VTT-videoTestVideo_video7464-shot1_1/img304.jpg,Images/MSR-VTT-videoTestVideo_video7464-shot1_1/img307.jpg,585,6,0,2022-06-15_07h18.36.588,annotation,2021.2.3,Win32,60.0024001,,
,,,,,,,,,,,,,,,,,0.520833333,0.12890625,1,0,0,image_4,0,1,1,24,1,1470,a close up of a man with a cell phone in his mouth.,M,0,5,video-storytelling-videocamping_EytINruY3-U-shot60_0,Images/video-storytelling-videocamping_EytINruY3-U-shot60_0/img0.jpg,Images/video-storytelling-videocamping_EytINruY3-U-shot60_0/img36.jpg,Images/video-storytelling-videocamping_EytINruY3-U-shot60_0/img54.jpg,Images/video-storytelling-videocamping_EytINruY3-U-shot60_0/img130.jpg,Images/video-storytelling-videocamping_EytINruY3-U-shot60_0/img136.jpg,Images/video-storytelling-videocamping_EytINruY3-U-shot60_0/img275.jpg,Images/video-storytelling-videocamping_EytINruY3-U-shot60_0/img281.jpg,Images/video-storytelling-videocamping_EytINruY3-U-shot60_0/img319.jpg,Images/video-storytelling-videocamping_EytINruY3-U-shot60_0/img344.jpg,Images/video-storytelling-videocamping_EytINruY3-U-shot60_0/img355.jpg,1027,6,0,2022-06-15_07h18.36.588,annotation,2021.2.3,Win32,60.0024001,,
,,,,,,,,,,,,,,,,,0.236979167,0.108072917,1,0,0,image_3,0,2,2,14,1,1419,A person cutting up a piece of food on a cutting board.,M,1,4,MSR-VTT-videoTestVideo_video9687-shot0_0,Images/MSR-VTT-videoTestVideo_video9687-shot0_0/img0.jpg,Images/MSR-VTT-videoTestVideo_video9687-shot0_0/img8.jpg,Images/MSR-VTT-videoTestVideo_video9687-shot0_0/img9.jpg,Images/MSR-VTT-videoTestVideo_video9687-shot0_0/img11.jpg,Images/MSR-VTT-videoTestVideo_video9687-shot0_0/img14.jpg,Images/MSR-VTT-videoTestVideo_video9687-shot0_0/img20.jpg,Images/MSR-VTT-videoTestVideo_video9687-shot0_0/img21.jpg,Images/MSR-VTT-videoTestVideo_video9687-shot0_0/img31.jpg,Images/MSR-VTT-videoTestVideo_video9687-shot0_0/img33.jpg,Images/MSR-VTT-videoTestVideo_video9687-shot0_0/img35.jpg,1208,6,0,2022-06-15_07h18.36.588,annotation,2021.2.3,Win32,60.0024001,,
,,,,,,,,,,,,,,,,,-0.028645833,0.162760417,1,0,0,image_2,0,3,3,58,1,0,Pair of black gloves,H,,2,open-images-510_3a241cb30d6e5319,Checks/check1/open-images-225_1442c0d0ef23d58bimg3.jpg,Checks/check1/open-images-2759_3a42708fe77398b7img8.jpg,Checks/check1/open-images-510_3a241cb30d6e5319img2.jpg,Checks/check1/open-images-2209_02c98146fb93ff17img1.jpg,Checks/check1/open-images-1553_0f128317e56a9d2fimg9.jpg,Checks/check1/open-images-2666_044d7c6d11e6b493img8.jpg,Checks/check1/open-images-2880_159294646083f545img4.jpg,Checks/check1/open-images-609_2dc0baa993a2bd25img5.jpg,Checks/check1/open-images-1854_2b15616b4f1080e7img2.jpg,Checks/check1/open-images-1435_1b0ce31951048765img8.jpg,,,1,2022-06-15_07h18.36.588,annotation,2021.2.3,Win32,60.0024001,,
,,,,,,,,,,,,,,,,,-0.432291667,0.139322917,1,0,0,image_0,0,4,4,8,1,2049,A man in a suit and tie poses for a picture.,M,0,8,MSR-VTT-videoTestVideo_video9021-shot3_0,Images/MSR-VTT-videoTestVideo_video9021-shot3_0/img0.jpg,Images/MSR-VTT-videoTestVideo_video9021-shot3_0/img5.jpg,Images/MSR-VTT-videoTestVideo_video9021-shot3_0/img12.jpg,Images/MSR-VTT-videoTestVideo_video9021-shot3_0/img16.jpg,Images/MSR-VTT-videoTestVideo_video9021-shot3_0/img20.jpg,Images/MSR-VTT-videoTestVideo_video9021-shot3_0/img27.jpg,Images/MSR-VTT-videoTestVideo_video9021-shot3_0/img34.jpg,Images/MSR-VTT-videoTestVideo_video9021-shot3_0/img42.jpg,Images/MSR-VTT-videoTestVideo_video9021-shot3_0/img55.jpg,Images/MSR-VTT-videoTestVideo_video9021-shot3_0/img67.jpg,1854,6,0,2022-06-15_07h18.36.588,annotation,2021.2.3,Win32,60.0024001,,
,,,,,,,,,,,,,,,,,-0.045572917,-0.134114583,1,0,0,image_7,0,5,5,21,1,1648,A person cutting a cake with a knife.,M,0,7,video-storytelling-videobirthday_fwpYnUDbusw-shot63_2,Images/video-storytelling-videobirthday_fwpYnUDbusw-shot63_2/img62.jpg,Images/video-storytelling-videobirthday_fwpYnUDbusw-shot63_2/img70.jpg,Images/video-storytelling-videobirthday_fwpYnUDbusw-shot63_2/img76.jpg,Images/video-storytelling-videobirthday_fwpYnUDbusw-shot63_2/img88.jpg,Images/video-storytelling-videobirthday_fwpYnUDbusw-shot63_2/img92.jpg,Images/video-storytelling-videobirthday_fwpYnUDbusw-shot63_2/img97.jpg,Images/video-storytelling-videobirthday_fwpYnUDbusw-shot63_2/img101.jpg,Images/video-storytelling-videobirthday_fwpYnUDbusw-shot63_2/img105.jpg,Images/video-storytelling-videobirthday_fwpYnUDbusw-shot63_2/img109.jpg,Images/video-storytelling-videobirthday_fwpYnUDbusw-shot63_2/img110.jpg,1856,6,0,2022-06-15_07h18.36.588,annotation,2021.2.3,Win32,60.0024001,,
,,,,,,,,,,,,,,,,,0.4765625,-0.143229167,1,0,0,image_9,0,6,6,15,1,206,The first person view is straight down a pathway.  The white lines on the ground makes three sides of a square.,H,0,7,MSR-VTT-videoTestVideo_video8027-shot1_0,Images/MSR-VTT-videoTestVideo_video8027-shot1_0/img0.jpg,Images/MSR-VTT-videoTestVideo_video8027-shot1_0/img4.jpg,Images/MSR-VTT-videoTestVideo_video8027-shot1_0/img7.jpg,Images/MSR-VTT-videoTestVideo_video8027-shot1_0/img8.jpg,Images/MSR-VTT-videoTestVideo_video8027-shot1_0/img13.jpg,Images/MSR-VTT-videoTestVideo_video8027-shot1_0/img34.jpg,Images/MSR-VTT-videoTestVideo_video8027-shot1_0/img52.jpg,Images/MSR-VTT-videoTestVideo_video8027-shot1_0/img57.jpg,Images/MSR-VTT-videoTestVideo_video8027-shot1_0/img65.jpg,Images/MSR-VTT-videoTestVideo_video8027-shot1_0/img73.jpg,1251,6,0,2022-06-15_07h18.36.588,annotation,2021.2.3,Win32,60.0024001,,
,,,,,,,,,,,,,,,,,0.216145833,0.213541667,1,0,0,image_3,0,7,7,53,1,839,The picture that looks the reddest and most bloody. ,H,0,3,MSR-VTT-videoTestVideo_video9837-shot1_0,Images/MSR-VTT-videoTestVideo_video9837-shot1_0/img0.jpg,Images/MSR-VTT-videoTestVideo_video9837-shot1_0/img6.jpg,Images/MSR-VTT-videoTestVideo_video9837-shot1_0/img7.jpg,Images/MSR-VTT-videoTestVideo_video9837-shot1_0/img13.jpg,Images/MSR-VTT-videoTestVideo_video9837-shot1_0/img30.jpg,Images/MSR-VTT-videoTestVideo_video9837-shot1_0/img44.jpg,Images/MSR-VTT-videoTestVideo_video9837-shot1_0/img53.jpg,Images/MSR-VTT-videoTestVideo_video9837-shot1_0/img58.jpg,Images/MSR-VTT-videoTestVideo_video9837-shot1_0/img59.jpg,Images/MSR-VTT-videoTestVideo_video9837-shot1_0/img68.jpg,588,6,0,2022-06-15_07h18.36.588,annotation,2021.2.3,Win32,60.0024001,,
,,,,,,,,,,,,,,,,,0.282552083,-0.11328125,1,0,0,image_8,0,8,8,35,1,2021,A cat laying on top of a person's bed.,M,0,3,MSR-VTT-videoTestVideo_video9672-shot1_1,Images/MSR-VTT-videoTestVideo_video9672-shot1_1/img53.jpg,Images/MSR-VTT-videoTestVideo_video9672-shot1_1/img64.jpg,Images/MSR-VTT-videoTestVideo_video9672-shot1_1/img65.jpg,Images/MSR-VTT-videoTestVideo_video9672-shot1_1/img69.jpg,Images/MSR-VTT-videoTestVideo_video9672-shot1_1/img78.jpg,Images/MSR-VTT-videoTestVideo_video9672-shot1_1/img81.jpg,Images/MSR-VTT-videoTestVideo_video9672-shot1_1/img82.jpg,Images/MSR-VTT-videoTestVideo_video9672-shot1_1/img88.jpg,Images/MSR-VTT-videoTestVideo_video9672-shot1_1/img95.jpg,Images/MSR-VTT-videoTestVideo_video9672-shot1_1/img100.jpg,1955,6,0,2022-06-15_07h18.36.588,annotation,2021.2.3,Win32,60.0024001,,
,,,,,,,,,,,,,,,,,0.274739583,0.13671875,1,0,0,image_3,0,9,9,36,1,803,One hand is touching the cheese and the other has two fingers above the cheese.,H,1,4,MSR-VTT-videoTestVideo_video7165-shot1_0,Images/MSR-VTT-videoTestVideo_video7165-shot1_0/img0.jpg,Images/MSR-VTT-videoTestVideo_video7165-shot1_0/img10.jpg,Images/MSR-VTT-videoTestVideo_video7165-shot1_0/img12.jpg,Images/MSR-VTT-videoTestVideo_video7165-shot1_0/img45.jpg,Images/MSR-VTT-videoTestVideo_video7165-shot1_0/img80.jpg,Images/MSR-VTT-videoTestVideo_video7165-shot1_0/img88.jpg,Images/MSR-VTT-videoTestVideo_video7165-shot1_0/img92.jpg,Images/MSR-VTT-videoTestVideo_video7165-shot1_0/img100.jpg,Images/MSR-VTT-videoTestVideo_video7165-shot1_0/img149.jpg,Images/MSR-VTT-videoTestVideo_video7165-shot1_0/img475.jpg,592,6,0,2022-06-15_07h18.36.588,annotation,2021.2.3,Win32,60.0024001,,
,,,,,,,,,,,,,,,,,0.471354167,-0.12109375,1,0,0,image_9,0,10,10,12,1,1413,A group of dogs standing in a grassy area.,M,0,7,MSR-VTT-videoTestVideo_video7295-shot1_10,Images/MSR-VTT-videoTestVideo_video7295-shot1_10/img185.jpg,Images/MSR-VTT-videoTestVideo_video7295-shot1_10/img191.jpg,Images/MSR-VTT-videoTestVideo_video7295-shot1_10/img198.jpg,Images/MSR-VTT-videoTestVideo_video7295-shot1_10/img201.jpg,Images/MSR-VTT-videoTestVideo_video7295-shot1_10/img203.jpg,Images/MSR-VTT-videoTestVideo_video7295-shot1_10/img204.jpg,Images/MSR-VTT-videoTestVideo_video7295-shot1_10/img206.jpg,Images/MSR-VTT-videoTestVideo_video7295-shot1_10/img207.jpg,Images/MSR-VTT-videoTestVideo_video7295-shot1_10/img208.jpg,Images/MSR-VTT-videoTestVideo_video7295-shot1_10/img209.jpg,641,6,0,2022-06-15_07h18.36.588,annotation,2021.2.3,Win32,60.0024001,,
,,,,,,,,,,,,,,,,,0.47265625,-0.123697917,1,0,0,image_9,0,11,11,57,1,1208,A couple of women sitting on a bed next to each other.,M,0,8,MSR-VTT-videoTestVideo_video9550-shot1_0,Images/MSR-VTT-videoTestVideo_video9550-shot1_0/img0.jpg,Images/MSR-VTT-videoTestVideo_video9550-shot1_0/img13.jpg,Images/MSR-VTT-videoTestVideo_video9550-shot1_0/img25.jpg,Images/MSR-VTT-videoTestVideo_video9550-shot1_0/img37.jpg,Images/MSR-VTT-videoTestVideo_video9550-shot1_0/img44.jpg,Images/MSR-VTT-videoTestVideo_video9550-shot1_0/img70.jpg,Images/MSR-VTT-videoTestVideo_video9550-shot1_0/img90.jpg,Images/MSR-VTT-videoTestVideo_video9550-shot1_0/img95.jpg,Images/MSR-VTT-videoTestVideo_video9550-shot1_0/img98.jpg,Images/MSR-VTT-videoTestVideo_video9550-shot1_0/img103.jpg,881,6,0,2022-06-15_07h18.36.588,annotation,2021.2.3,Win32,60.0024001,,
,,,,,,,,,,,,,,,,,-0.438802083,0.209635417,1,0,0,image_0,0,12,12,38,1,619,"Only the red area of the tail light is visible. The view is directly at the back of the car, not at an angle.",H,0,0,MSR-VTT-videoTestVideo_video9975-shot1_2,Images/MSR-VTT-videoTestVideo_video9975-shot1_2/img168.jpg,Images/MSR-VTT-videoTestVideo_video9975-shot1_2/img175.jpg,Images/MSR-VTT-videoTestVideo_video9975-shot1_2/img182.jpg,Images/MSR-VTT-videoTestVideo_video9975-shot1_2/img184.jpg,Images/MSR-VTT-videoTestVideo_video9975-shot1_2/img202.jpg,Images/MSR-VTT-videoTestVideo_video9975-shot1_2/img217.jpg,Images/MSR-VTT-videoTestVideo_video9975-shot1_2/img242.jpg,Images/MSR-VTT-videoTestVideo_video9975-shot1_2/img264.jpg,Images/MSR-VTT-videoTestVideo_video9975-shot1_2/img269.jpg,Images/MSR-VTT-videoTestVideo_video9975-shot1_2/img275.jpg,1489,6,0,2022-06-15_07h18.36.588,annotation,2021.2.3,Win32,60.0024001,,
,,,,,,,,,,,,,,,,,0.493489583,-0.17578125,1,0,0,image_9,0,13,13,55,1,1671,A man with a blue shirt and a blue tie.,M,0,3,MSR-VTT-videoTestVideo_video8321-shot0_1,Images/MSR-VTT-videoTestVideo_video8321-shot0_1/img238.jpg,Images/MSR-VTT-videoTestVideo_video8321-shot0_1/img249.jpg,Images/MSR-VTT-videoTestVideo_video8321-shot0_1/img256.jpg,Images/MSR-VTT-videoTestVideo_video8321-shot0_1/img263.jpg,Images/MSR-VTT-videoTestVideo_video8321-shot0_1/img268.jpg,Images/MSR-VTT-videoTestVideo_video8321-shot0_1/img286.jpg,Images/MSR-VTT-videoTestVideo_video8321-shot0_1/img289.jpg,Images/MSR-VTT-videoTestVideo_video8321-shot0_1/img297.jpg,Images/MSR-VTT-videoTestVideo_video8321-shot0_1/img311.jpg,Images/MSR-VTT-videoTestVideo_video8321-shot0_1/img333.jpg,1440,6,0,2022-06-15_07h18.36.588,annotation,2021.2.3,Win32,60.0024001,,
,,,,,,,,,,,,,,,,,0.498697917,0.067708333,1,0,0,image_4,0,14,14,56,1,613,The bottom picture is almost all red with very little black showing,H,0,4,YouCook-video0008-shot10_1,Images/YouCook-video0008-shot10_1/img35.jpg,Images/YouCook-video0008-shot10_1/img40.jpg,Images/YouCook-video0008-shot10_1/img42.jpg,Images/YouCook-video0008-shot10_1/img46.jpg,Images/YouCook-video0008-shot10_1/img49.jpg,Images/YouCook-video0008-shot10_1/img64.jpg,Images/YouCook-video0008-shot10_1/img93.jpg,Images/YouCook-video0008-shot10_1/img96.jpg,Images/YouCook-video0008-shot10_1/img100.jpg,Images/YouCook-video0008-shot10_1/img108.jpg,193,6,0,2022-06-15_07h18.36.588,annotation,2021.2.3,Win32,60.0024001,,
,,,,,,,,,,,,,,,,,-0.0546875,-0.114583333,1,0,0,image_7,0,15,15,33,1,870,The bird has just gone more upright and the top of its head is off the top of the image.  You can just barely see one of its eyes. ,H,0,8,MSR-VTT-videoTestVideo_video7113-shot1_1,Images/MSR-VTT-videoTestVideo_video7113-shot1_1/img58.jpg,Images/MSR-VTT-videoTestVideo_video7113-shot1_1/img72.jpg,Images/MSR-VTT-videoTestVideo_video7113-shot1_1/img76.jpg,Images/MSR-VTT-videoTestVideo_video7113-shot1_1/img81.jpg,Images/MSR-VTT-videoTestVideo_video7113-shot1_1/img89.jpg,Images/MSR-VTT-videoTestVideo_video7113-shot1_1/img93.jpg,Images/MSR-VTT-videoTestVideo_video7113-shot1_1/img96.jpg,Images/MSR-VTT-videoTestVideo_video7113-shot1_1/img102.jpg,Images/MSR-VTT-videoTestVideo_video7113-shot1_1/img116.jpg,Images/MSR-VTT-videoTestVideo_video7113-shot1_1/img128.jpg,1975,6,0,2022-06-15_07h18.36.588,annotation,2021.2.3,Win32,60.0024001,,
,,,,,,,,,,,,,,,,,-0.477864583,-0.196614583,1,0,0,image_5,0,16,16,40,1,234,the white object on the woman in jean shorts seems to be aligned with the pointing finger,H,0,5,video-storytelling-videocamping_1OzbiB1TIWI-shot43_12,Images/video-storytelling-videocamping_1OzbiB1TIWI-shot43_12/img663.jpg,Images/video-storytelling-videocamping_1OzbiB1TIWI-shot43_12/img666.jpg,Images/video-storytelling-videocamping_1OzbiB1TIWI-shot43_12/img668.jpg,Images/video-storytelling-videocamping_1OzbiB1TIWI-shot43_12/img673.jpg,Images/video-storytelling-videocamping_1OzbiB1TIWI-shot43_12/img676.jpg,Images/video-storytelling-videocamping_1OzbiB1TIWI-shot43_12/img679.jpg,Images/video-storytelling-videocamping_1OzbiB1TIWI-shot43_12/img686.jpg,Images/video-storytelling-videocamping_1OzbiB1TIWI-shot43_12/img690.jpg,Images/video-storytelling-videocamping_1OzbiB1TIWI-shot43_12/img694.jpg,Images/video-storytelling-videocamping_1OzbiB1TIWI-shot43_12/img699.jpg,867,6,0,2022-06-15_07h18.36.588,annotation,2021.2.3,Win32,60.0024001,,
,,,,,,,,,,,,,,,,,-0.209635417,0.177083333,1,0,0,image_1,0,17,17,18,1,1112,A person is holding a pair of hair dryers.,M,0,6,MSR-VTT-videoTestVideo_video9311-shot1_0,Images/MSR-VTT-videoTestVideo_video9311-shot1_0/img0.jpg,Images/MSR-VTT-videoTestVideo_video9311-shot1_0/img7.jpg,Images/MSR-VTT-videoTestVideo_video9311-shot1_0/img18.jpg,Images/MSR-VTT-videoTestVideo_video9311-shot1_0/img38.jpg,Images/MSR-VTT-videoTestVideo_video9311-shot1_0/img64.jpg,Images/MSR-VTT-videoTestVideo_video9311-shot1_0/img65.jpg,Images/MSR-VTT-videoTestVideo_video9311-shot1_0/img75.jpg,Images/MSR-VTT-videoTestVideo_video9311-shot1_0/img82.jpg,Images/MSR-VTT-videoTestVideo_video9311-shot1_0/img87.jpg,Images/MSR-VTT-videoTestVideo_video9311-shot1_0/img90.jpg,1262,6,0,2022-06-15_07h18.36.588,annotation,2021.2.3,Win32,60.0024001,,
,,,,,,,,,,,,,,,,,-0.009114583,-0.149739583,1,0,0,image_7,0,18,18,30,1,2064,A person standing in front of a kitchen counter.,M,0,6,MSR-VTT-videoTestVideo_video7652-shot1_2,Images/MSR-VTT-videoTestVideo_video7652-shot1_2/img150.jpg,Images/MSR-VTT-videoTestVideo_video7652-shot1_2/img152.jpg,Images/MSR-VTT-videoTestVideo_video7652-shot1_2/img154.jpg,Images/MSR-VTT-videoTestVideo_video7652-shot1_2/img155.jpg,Images/MSR-VTT-videoTestVideo_video7652-shot1_2/img157.jpg,Images/MSR-VTT-videoTestVideo_video7652-shot1_2/img175.jpg,Images/MSR-VTT-videoTestVideo_video7652-shot1_2/img176.jpg,Images/MSR-VTT-videoTestVideo_video7652-shot1_2/img184.jpg,Images/MSR-VTT-videoTestVideo_video7652-shot1_2/img189.jpg,Images/MSR-VTT-videoTestVideo_video7652-shot1_2/img191.jpg,1008,6,0,2022-06-15_07h18.36.588,annotation,2021.2.3,Win32,60.0024001,,
,,,,,,,,,,,,,,,,,-0.049479167,-0.149739583,1,0,0,image_7,0,19,19,25,1,1078,A couple of people walking down a street.,M,0,0,MSR-VTT-videoTestVideo_video7692-shot2_3,Images/MSR-VTT-videoTestVideo_video7692-shot2_3/img507.jpg,Images/MSR-VTT-videoTestVideo_video7692-shot2_3/img508.jpg,Images/MSR-VTT-videoTestVideo_video7692-shot2_3/img515.jpg,Images/MSR-VTT-videoTestVideo_video7692-shot2_3/img522.jpg,Images/MSR-VTT-videoTestVideo_video7692-shot2_3/img527.jpg,Images/MSR-VTT-videoTestVideo_video7692-shot2_3/img531.jpg,Images/MSR-VTT-videoTestVideo_video7692-shot2_3/img539.jpg,Images/MSR-VTT-videoTestVideo_video7692-shot2_3/img603.jpg,Images/MSR-VTT-videoTestVideo_video7692-shot2_3/img632.jpg,Images/MSR-VTT-videoTestVideo_video7692-shot2_3/img639.jpg,389,6,0,2022-06-15_07h18.36.588,annotation,2021.2.3,Win32,60.0024001,,
,,,,,,,,,,,,,,,,,-0.196614583,0.221354167,1,0,0,image_1,0,20,20,49,1,151,A fin-like handle on the bowl is pointed to the bottom left corner. A blurry thumb is in the other corner.,H,0,6,YouCook-video0008-shot2_2,Images/YouCook-video0008-shot2_2/img423.jpg,Images/YouCook-video0008-shot2_2/img425.jpg,Images/YouCook-video0008-shot2_2/img440.jpg,Images/YouCook-video0008-shot2_2/img451.jpg,Images/YouCook-video0008-shot2_2/img458.jpg,Images/YouCook-video0008-shot2_2/img462.jpg,Images/YouCook-video0008-shot2_2/img469.jpg,Images/YouCook-video0008-shot2_2/img488.jpg,Images/YouCook-video0008-shot2_2/img491.jpg,Images/YouCook-video0008-shot2_2/img525.jpg,280,6,0,2022-06-15_07h18.36.588,annotation,2021.2.3,Win32,60.0024001,,
,,,,,,,,,,,,,,,,,-0.243489583,0.18359375,1,0,0,image_1,0,21,21,6,1,1472,A group of people standing around a black and white camera.,M,0,5,video-storytelling-videocamping_1OzbiB1TIWI-shot14_6,Images/video-storytelling-videocamping_1OzbiB1TIWI-shot14_6/img922.jpg,Images/video-storytelling-videocamping_1OzbiB1TIWI-shot14_6/img930.jpg,Images/video-storytelling-videocamping_1OzbiB1TIWI-shot14_6/img932.jpg,Images/video-storytelling-videocamping_1OzbiB1TIWI-shot14_6/img943.jpg,Images/video-storytelling-videocamping_1OzbiB1TIWI-shot14_6/img949.jpg,Images/video-storytelling-videocamping_1OzbiB1TIWI-shot14_6/img955.jpg,Images/video-storytelling-videocamping_1OzbiB1TIWI-shot14_6/img958.jpg,Images/video-storytelling-videocamping_1OzbiB1TIWI-shot14_6/img967.jpg,Images/video-storytelling-videocamping_1OzbiB1TIWI-shot14_6/img969.jpg,Images/video-storytelling-videocamping_1OzbiB1TIWI-shot14_6/img973.jpg,661,6,0,2022-06-15_07h18.36.588,annotation,2021.2.3,Win32,60.0024001,,
,,,,,,,,,,,,,,,,,-0.205729167,0.197916667,1,0,0,image_1,0,22,22,62,1,4,A penguin holding a piece of paper with text on it. ,H,,1,open-images-2521_074d6af730ed17a6,Checks/check5/open-images-509_4d8bd994cb8c6eaeimg0.jpg,Checks/check5/open-images-2521_074d6af730ed17a6img1.jpg,Checks/check5/open-images-1365_a00a5fde334ae45aimg4.jpg,Checks/check5/open-images-1602_44092afdeab39e73img6.jpg,Checks/check5/open-images-1032_059f3cdfb85ee0ceimg3.jpg,Checks/check5/open-images-727_25b77fff36adba66img2.jpg,Checks/check5/open-images-2208_0fb92b9978d98575img2.jpg,Checks/check5/open-images-1305_05769e6abb16fdc8img9.jpg,Checks/check5/open-images-2676_052dbf7b4899430bimg1.jpg,Checks/check5/open-images-2569_1e81d79bb796a2dbimg7.jpg,,,1,2022-06-15_07h18.36.588,annotation,2021.2.3,Win32,60.0024001,,
,,,,,,,,,,,,,,,,,-0.016927083,0.19140625,1,0,0,image_2,0,23,23,9,1,392,"The man's face is cut off at his nose and there is a man's face showing one eye, his forehead and hair.",H,0,5,MSR-VTT-videoTestVideo_video9951-shot1_0,Images/MSR-VTT-videoTestVideo_video9951-shot1_0/img0.jpg,Images/MSR-VTT-videoTestVideo_video9951-shot1_0/img3.jpg,Images/MSR-VTT-videoTestVideo_video9951-shot1_0/img6.jpg,Images/MSR-VTT-videoTestVideo_video9951-shot1_0/img9.jpg,Images/MSR-VTT-videoTestVideo_video9951-shot1_0/img12.jpg,Images/MSR-VTT-videoTestVideo_video9951-shot1_0/img17.jpg,Images/MSR-VTT-videoTestVideo_video9951-shot1_0/img23.jpg,Images/MSR-VTT-videoTestVideo_video9951-shot1_0/img33.jpg,Images/MSR-VTT-videoTestVideo_video9951-shot1_0/img37.jpg,Images/MSR-VTT-videoTestVideo_video9951-shot1_0/img41.jpg,1396,6,0,2022-06-15_07h18.36.588,annotation,2021.2.3,Win32,60.0024001,,
,,,,,,,,,,,,,,,,,0.42578125,0.131510417,1,0,0,image_4,0,24,24,27,1,447,The car is making a turn to the left.  The street that was straight ahead can't be seen at all now.  The van in the distance can still fully be seen. ,H,0,6,MSR-VTT-videoTestVideo_video9706-shot1_0,Images/MSR-VTT-videoTestVideo_video9706-shot1_0/img0.jpg,Images/MSR-VTT-videoTestVideo_video9706-shot1_0/img9.jpg,Images/MSR-VTT-videoTestVideo_video9706-shot1_0/img22.jpg,Images/MSR-VTT-videoTestVideo_video9706-shot1_0/img24.jpg,Images/MSR-VTT-videoTestVideo_video9706-shot1_0/img34.jpg,Images/MSR-VTT-videoTestVideo_video9706-shot1_0/img49.jpg,Images/MSR-VTT-videoTestVideo_video9706-shot1_0/img55.jpg,Images/MSR-VTT-videoTestVideo_video9706-shot1_0/img66.jpg,Images/MSR-VTT-videoTestVideo_video9706-shot1_0/img67.jpg,Images/MSR-VTT-videoTestVideo_video9706-shot1_0/img77.jpg,645,6,0,2022-06-15_07h18.36.588,annotation,2021.2.3,Win32,60.0024001,,
,,,,,,,,,,,,,,,,,-0.484375,-0.119791667,1,0,0,image_5,0,25,25,42,1,252,"The spoon and hand are centered in middle of the bowl, most.",H,0,5,YouCook-video0063-shot15_4,Images/YouCook-video0063-shot15_4/img174.jpg,Images/YouCook-video0063-shot15_4/img179.jpg,Images/YouCook-video0063-shot15_4/img180.jpg,Images/YouCook-video0063-shot15_4/img186.jpg,Images/YouCook-video0063-shot15_4/img188.jpg,Images/YouCook-video0063-shot15_4/img190.jpg,Images/YouCook-video0063-shot15_4/img196.jpg,Images/YouCook-video0063-shot15_4/img201.jpg,Images/YouCook-video0063-shot15_4/img203.jpg,Images/YouCook-video0063-shot15_4/img208.jpg,1601,6,0,2022-06-15_07h18.36.588,annotation,2021.2.3,Win32,60.0024001,,
,,,,,,,,,,,,,,,,,-0.48828125,-0.162760417,1,0,0,image_5,0,26,26,59,1,1,The only picture of a hawk.  It is looking to the left.  You see lots of branches and darker blue sky. ,H,,5,open-images-958_686caac9c5b322e7,Checks/check2/open-images-2603_1b5152f01f0093e7img3.jpg,Checks/check2/open-images-1836_069810916ce5d675img8.jpg,Checks/check2/open-images-974_0748fdedc4bf8b7bimg2.jpg,Checks/check2/open-images-617_01fb725fb1aa7b04img6.jpg,Checks/check2/open-images-507_047769e1f977cd97img2.jpg,Checks/check2/open-images-958_686caac9c5b322e7img5.jpg,Checks/check2/open-images-1278_21851d9bf5dc05c9img7.jpg,Checks/check2/open-images-2424_05f04546e01499f2img0.jpg,Checks/check2/open-images-1529_1442b11a10a6aeadimg3.jpg,Checks/check2/open-images-514_2c523ddedc2561d4img1.jpg,,,1,2022-06-15_07h18.36.588,annotation,2021.2.3,Win32,60.0024001,,
,,,,,,,,,,,,,,,,,-0.23046875,0.186197917,1,0,0,image_1,0,27,27,34,1,56,A person completely a slam dunk in a gym and ball is headed back to the ground. ,H,0,2,MSR-VTT-videoTestVideo_video8715-shot0_0,Images/MSR-VTT-videoTestVideo_video8715-shot0_0/img0.jpg,Images/MSR-VTT-videoTestVideo_video8715-shot0_0/img7.jpg,Images/MSR-VTT-videoTestVideo_video8715-shot0_0/img15.jpg,Images/MSR-VTT-videoTestVideo_video8715-shot0_0/img19.jpg,Images/MSR-VTT-videoTestVideo_video8715-shot0_0/img28.jpg,Images/MSR-VTT-videoTestVideo_video8715-shot0_0/img33.jpg,Images/MSR-VTT-videoTestVideo_video8715-shot0_0/img35.jpg,Images/MSR-VTT-videoTestVideo_video8715-shot0_0/img39.jpg,Images/MSR-VTT-videoTestVideo_video8715-shot0_0/img47.jpg,Images/MSR-VTT-videoTestVideo_video8715-shot0_0/img50.jpg,1190,6,0,2022-06-15_07h18.36.588,annotation,2021.2.3,Win32,60.0024001,,
,,,,,,,,,,,,,,,,,-0.522135417,-0.119791667,1,0,0,image_5,0,28,28,1,1,1038,"Her face is turned toward the front. Her eyes are cut down toward the left corner, mostly closed. Her mouth is open. Her hand is visible right by her left arm.",H,0,0,MSR-VTT-videoTestVideo_video7984-shot1_4,Images/MSR-VTT-videoTestVideo_video7984-shot1_4/img346.jpg,Images/MSR-VTT-videoTestVideo_video7984-shot1_4/img355.jpg,Images/MSR-VTT-videoTestVideo_video7984-shot1_4/img380.jpg,Images/MSR-VTT-videoTestVideo_video7984-shot1_4/img403.jpg,Images/MSR-VTT-videoTestVideo_video7984-shot1_4/img423.jpg,Images/MSR-VTT-videoTestVideo_video7984-shot1_4/img438.jpg,Images/MSR-VTT-videoTestVideo_video7984-shot1_4/img446.jpg,Images/MSR-VTT-videoTestVideo_video7984-shot1_4/img450.jpg,Images/MSR-VTT-videoTestVideo_video7984-shot1_4/img454.jpg,Images/MSR-VTT-videoTestVideo_video7984-shot1_4/img466.jpg,989,6,0,2022-06-15_07h18.36.588,annotation,2021.2.3,Win32,60.0024001,,
,,,,,,,,,,,,,,,,,-0.53125,0.075520833,1,0,0,image_0,0,29,29,52,1,1818,A person with a bowl of chocolate on top of a plate.,M,1,7,YouCook-video0008-shot2_2,Images/YouCook-video0008-shot2_2/img423.jpg,Images/YouCook-video0008-shot2_2/img425.jpg,Images/YouCook-video0008-shot2_2/img440.jpg,Images/YouCook-video0008-shot2_2/img451.jpg,Images/YouCook-video0008-shot2_2/img458.jpg,Images/YouCook-video0008-shot2_2/img462.jpg,Images/YouCook-video0008-shot2_2/img469.jpg,Images/YouCook-video0008-shot2_2/img488.jpg,Images/YouCook-video0008-shot2_2/img491.jpg,Images/YouCook-video0008-shot2_2/img525.jpg,695,6,0,2022-06-15_07h18.36.588,annotation,2021.2.3,Win32,60.0024001,,
,,,,,,,,,,,,,,,,,0.278645833,-0.1328125,1,0,0,image_8,0,30,30,45,1,127,"The cinders are being raked, the rake is slightly blurry, no leaves",H,0,2,video-storytelling-videocamping_EytINruY3-U-shot37_0,Images/video-storytelling-videocamping_EytINruY3-U-shot37_0/img0.jpg,Images/video-storytelling-videocamping_EytINruY3-U-shot37_0/img16.jpg,Images/video-storytelling-videocamping_EytINruY3-U-shot37_0/img21.jpg,Images/video-storytelling-videocamping_EytINruY3-U-shot37_0/img42.jpg,Images/video-storytelling-videocamping_EytINruY3-U-shot37_0/img141.jpg,Images/video-storytelling-videocamping_EytINruY3-U-shot37_0/img159.jpg,Images/video-storytelling-videocamping_EytINruY3-U-shot37_0/img315.jpg,Images/video-storytelling-videocamping_EytINruY3-U-shot37_0/img317.jpg,Images/video-storytelling-videocamping_EytINruY3-U-shot37_0/img318.jpg,Images/video-storytelling-videocamping_EytINruY3-U-shot37_0/img321.jpg,1646,6,0,2022-06-15_07h18.36.588,annotation,2021.2.3,Win32,60.0024001,,
,,,,,,,,,,,,,,,,,0.015625,0.174479167,1,0,0,image_2,0,31,31,61,1,3,A grey elephant with golden leaves on it. ,H,,2,open-images-1745_0ed62fe71809b2f5,Checks/check4/open-images-2609_3f72daeb23764ecfimg6.jpg,Checks/check4/open-images-1928_60679e2899870e08img1.jpg,Checks/check4/open-images-1745_0ed62fe71809b2f5img2.jpg,Checks/check4/open-images-1811_9ae6351c7f7565edimg0.jpg,Checks/check4/open-images-1721_6f04da11945ea492img3.jpg,Checks/check4/open-images-1907_5f9be3e4ea5e22c7img2.jpg,Checks/check4/open-images-580_0ddffb9c25141999img1.jpg,Checks/check4/open-images-2924_0645dcbcf998fed9img3.jpg,Checks/check4/open-images-869_856ecbcb5faf76e3img8.jpg,Checks/check4/open-images-250_02039517e63a91fbimg1.jpg,,,1,2022-06-15_07h18.36.588,annotation,2021.2.3,Win32,60.0024001,,
,,,,,,,,,,,,,,,,,-0.032552083,0.059895833,1,0,0,image_2,0,32,32,43,1,92,There is a guy punching at the screen above the text at the bottom.,H,0,3,MSR-VTT-videoTestVideo_video8931-shot1_1,Images/MSR-VTT-videoTestVideo_video8931-shot1_1/img276.jpg,Images/MSR-VTT-videoTestVideo_video8931-shot1_1/img291.jpg,Images/MSR-VTT-videoTestVideo_video8931-shot1_1/img300.jpg,Images/MSR-VTT-videoTestVideo_video8931-shot1_1/img330.jpg,Images/MSR-VTT-videoTestVideo_video8931-shot1_1/img367.jpg,Images/MSR-VTT-videoTestVideo_video8931-shot1_1/img396.jpg,Images/MSR-VTT-videoTestVideo_video8931-shot1_1/img417.jpg,Images/MSR-VTT-videoTestVideo_video8931-shot1_1/img422.jpg,Images/MSR-VTT-videoTestVideo_video8931-shot1_1/img442.jpg,Images/MSR-VTT-videoTestVideo_video8931-shot1_1/img494.jpg,2062,6,0,2022-06-15_07h18.36.588,annotation,2021.2.3,Win32,60.0024001,,
,,,,,,,,,,,,,,,,,0.015625,-0.122395833,1,0,0,image_7,0,33,33,39,1,100,There is a highlighted angled portion of the blanket at the top left and another highlighted portion to the left of center bottom.,H,1,6,MSR-VTT-videoTestVideo_video8432-shot4_0,Images/MSR-VTT-videoTestVideo_video8432-shot4_0/img0.jpg,Images/MSR-VTT-videoTestVideo_video8432-shot4_0/img67.jpg,Images/MSR-VTT-videoTestVideo_video8432-shot4_0/img71.jpg,Images/MSR-VTT-videoTestVideo_video8432-shot4_0/img78.jpg,Images/MSR-VTT-videoTestVideo_video8432-shot4_0/img85.jpg,Images/MSR-VTT-videoTestVideo_video8432-shot4_0/img87.jpg,Images/MSR-VTT-videoTestVideo_video8432-shot4_0/img96.jpg,Images/MSR-VTT-videoTestVideo_video8432-shot4_0/img101.jpg,Images/MSR-VTT-videoTestVideo_video8432-shot4_0/img117.jpg,Images/MSR-VTT-videoTestVideo_video8432-shot4_0/img121.jpg,471,6,0,2022-06-15_07h18.36.588,annotation,2021.2.3,Win32,60.0024001,,
,,,,,,,,,,,,,,,,,-0.002604167,0.182291667,1,0,0,image_2,0,34,34,47,1,243,the tissue is covering most of his face including his eyes ,H,1,2,video-storytelling-videochristmas_5RR_sRzKODA-shot44_2,Images/video-storytelling-videochristmas_5RR_sRzKODA-shot44_2/img99.jpg,Images/video-storytelling-videochristmas_5RR_sRzKODA-shot44_2/img104.jpg,Images/video-storytelling-videochristmas_5RR_sRzKODA-shot44_2/img108.jpg,Images/video-storytelling-videochristmas_5RR_sRzKODA-shot44_2/img118.jpg,Images/video-storytelling-videochristmas_5RR_sRzKODA-shot44_2/img122.jpg,Images/video-storytelling-videochristmas_5RR_sRzKODA-shot44_2/img126.jpg,Images/video-storytelling-videochristmas_5RR_sRzKODA-shot44_2/img129.jpg,Images/video-storytelling-videochristmas_5RR_sRzKODA-shot44_2/img133.jpg,Images/video-storytelling-videochristmas_5RR_sRzKODA-shot44_2/img136.jpg,Images/video-storytelling-videochristmas_5RR_sRzKODA-shot44_2/img139.jpg,1098,6,0,2022-06-15_07h18.36.588,annotation,2021.2.3,Win32,60.0024001,,
,,,,,,,,,,,,,,,,,0.325520833,0.098958333,1,0,0,image_3,0,35,35,41,1,1944,A woman brushing her teeth with a cell phone.,M,0,4,MSR-VTT-videoTestVideo_video8952-shot1_1,Images/MSR-VTT-videoTestVideo_video8952-shot1_1/img104.jpg,Images/MSR-VTT-videoTestVideo_video8952-shot1_1/img107.jpg,Images/MSR-VTT-videoTestVideo_video8952-shot1_1/img112.jpg,Images/MSR-VTT-videoTestVideo_video8952-shot1_1/img115.jpg,Images/MSR-VTT-videoTestVideo_video8952-shot1_1/img117.jpg,Images/MSR-VTT-videoTestVideo_video8952-shot1_1/img119.jpg,Images/MSR-VTT-videoTestVideo_video8952-shot1_1/img122.jpg,Images/MSR-VTT-videoTestVideo_video8952-shot1_1/img127.jpg,Images/MSR-VTT-videoTestVideo_video8952-shot1_1/img129.jpg,Images/MSR-VTT-videoTestVideo_video8952-shot1_1/img130.jpg,1421,6,0,2022-06-15_07h18.36.588,annotation,2021.2.3,Win32,60.0024001,,
,,,,,,,,,,,,,,,,,-0.490885417,0.131510417,1,0,0,image_0,0,36,36,16,1,199,The top corner of the blue package ends just below the figure's left eye,H,0,1,video-storytelling-videobirthday__amwPjAcoC8-shot13_2,Images/video-storytelling-videobirthday__amwPjAcoC8-shot13_2/img45.jpg,Images/video-storytelling-videobirthday__amwPjAcoC8-shot13_2/img47.jpg,Images/video-storytelling-videobirthday__amwPjAcoC8-shot13_2/img49.jpg,Images/video-storytelling-videobirthday__amwPjAcoC8-shot13_2/img50.jpg,Images/video-storytelling-videobirthday__amwPjAcoC8-shot13_2/img53.jpg,Images/video-storytelling-videobirthday__amwPjAcoC8-shot13_2/img58.jpg,Images/video-storytelling-videobirthday__amwPjAcoC8-shot13_2/img60.jpg,Images/video-storytelling-videobirthday__amwPjAcoC8-shot13_2/img61.jpg,Images/video-storytelling-videobirthday__amwPjAcoC8-shot13_2/img62.jpg,Images/video-storytelling-videobirthday__amwPjAcoC8-shot13_2/img64.jpg,1207,6,0,2022-06-15_07h18.36.588,annotation,2021.2.3,Win32,60.0024001,,
,,,,,,,,,,,,,,,,,-0.247395833,0.109375,1,0,0,image_1,0,37,37,31,1,1641,A couple of people standing next to each other.,M,0,8,MSR-VTT-videoTestVideo_video7137-shot1_1,Images/MSR-VTT-videoTestVideo_video7137-shot1_1/img74.jpg,Images/MSR-VTT-videoTestVideo_video7137-shot1_1/img79.jpg,Images/MSR-VTT-videoTestVideo_video7137-shot1_1/img96.jpg,Images/MSR-VTT-videoTestVideo_video7137-shot1_1/img116.jpg,Images/MSR-VTT-videoTestVideo_video7137-shot1_1/img129.jpg,Images/MSR-VTT-videoTestVideo_video7137-shot1_1/img134.jpg,Images/MSR-VTT-videoTestVideo_video7137-shot1_1/img139.jpg,Images/MSR-VTT-videoTestVideo_video7137-shot1_1/img147.jpg,Images/MSR-VTT-videoTestVideo_video7137-shot1_1/img152.jpg,Images/MSR-VTT-videoTestVideo_video7137-shot1_1/img158.jpg,1879,6,0,2022-06-15_07h18.36.588,annotation,2021.2.3,Win32,60.0024001,,
,,,,,,,,,,,,,,,,,0.5,0.07421875,1,0,0,image_4,0,38,38,2,1,1160,A woman standing on the side of a road with a bicycle.,M,0,6,video-storytelling-videocamping_dBXYM3dQTSo-shot55_0,Images/video-storytelling-videocamping_dBXYM3dQTSo-shot55_0/img0.jpg,Images/video-storytelling-videocamping_dBXYM3dQTSo-shot55_0/img1.jpg,Images/video-storytelling-videocamping_dBXYM3dQTSo-shot55_0/img11.jpg,Images/video-storytelling-videocamping_dBXYM3dQTSo-shot55_0/img19.jpg,Images/video-storytelling-videocamping_dBXYM3dQTSo-shot55_0/img25.jpg,Images/video-storytelling-videocamping_dBXYM3dQTSo-shot55_0/img29.jpg,Images/video-storytelling-videocamping_dBXYM3dQTSo-shot55_0/img34.jpg,Images/video-storytelling-videocamping_dBXYM3dQTSo-shot55_0/img41.jpg,Images/video-storytelling-videocamping_dBXYM3dQTSo-shot55_0/img53.jpg,Images/video-storytelling-videocamping_dBXYM3dQTSo-shot55_0/img63.jpg,1744,6,0,2022-06-15_07h18.36.588,annotation,2021.2.3,Win32,60.0024001,,
,,,,,,,,,,,,,,,,,-0.321614583,0.108072917,1,0,0,image_1,0,39,39,0,1,44,"There is blurry text at the very bottom of the screen. Only one human head is visible, the heads in the photos in the upper corners are cut off by the upper edge .",H,0,5,MSR-VTT-videoTestVideo_video8454-shot1_1,Images/MSR-VTT-videoTestVideo_video8454-shot1_1/img86.jpg,Images/MSR-VTT-videoTestVideo_video8454-shot1_1/img87.jpg,Images/MSR-VTT-videoTestVideo_video8454-shot1_1/img88.jpg,Images/MSR-VTT-videoTestVideo_video8454-shot1_1/img89.jpg,Images/MSR-VTT-videoTestVideo_video8454-shot1_1/img147.jpg,Images/MSR-VTT-videoTestVideo_video8454-shot1_1/img148.jpg,Images/MSR-VTT-videoTestVideo_video8454-shot1_1/img152.jpg,Images/MSR-VTT-videoTestVideo_video8454-shot1_1/img156.jpg,Images/MSR-VTT-videoTestVideo_video8454-shot1_1/img159.jpg,Images/MSR-VTT-videoTestVideo_video8454-shot1_1/img172.jpg,1778,6,0,2022-06-15_07h18.36.588,annotation,2021.2.3,Win32,60.0024001,,
,,,,,,,,,,,,,,,,,-0.24609375,-0.125,1,0,0,image_6,0,40,40,54,1,361,Four floating letters are visible around the red truck.,H,0,1,MSR-VTT-videoTestVideo_video9396-shot0_0,Images/MSR-VTT-videoTestVideo_video9396-shot0_0/img0.jpg,Images/MSR-VTT-videoTestVideo_video9396-shot0_0/img11.jpg,Images/MSR-VTT-videoTestVideo_video9396-shot0_0/img22.jpg,Images/MSR-VTT-videoTestVideo_video9396-shot0_0/img31.jpg,Images/MSR-VTT-videoTestVideo_video9396-shot0_0/img38.jpg,Images/MSR-VTT-videoTestVideo_video9396-shot0_0/img40.jpg,Images/MSR-VTT-videoTestVideo_video9396-shot0_0/img45.jpg,Images/MSR-VTT-videoTestVideo_video9396-shot0_0/img52.jpg,Images/MSR-VTT-videoTestVideo_video9396-shot0_0/img76.jpg,Images/MSR-VTT-videoTestVideo_video9396-shot0_0/img107.jpg,1733,6,0,2022-06-15_07h18.36.588,annotation,2021.2.3,Win32,60.0024001,,
,,,,,,,,,,,,,,,,,0.282552083,-0.1640625,1,0,0,image_8,0,41,41,46,1,848,You can just start to see the bottom of the man's face who has a grey jacket on. ,H,1,3,MSR-VTT-videoTestVideo_video9235-shot0_0,Images/MSR-VTT-videoTestVideo_video9235-shot0_0/img0.jpg,Images/MSR-VTT-videoTestVideo_video9235-shot0_0/img4.jpg,Images/MSR-VTT-videoTestVideo_video9235-shot0_0/img7.jpg,Images/MSR-VTT-videoTestVideo_video9235-shot0_0/img9.jpg,Images/MSR-VTT-videoTestVideo_video9235-shot0_0/img11.jpg,Images/MSR-VTT-videoTestVideo_video9235-shot0_0/img15.jpg,Images/MSR-VTT-videoTestVideo_video9235-shot0_0/img19.jpg,Images/MSR-VTT-videoTestVideo_video9235-shot0_0/img22.jpg,Images/MSR-VTT-videoTestVideo_video9235-shot0_0/img29.jpg,Images/MSR-VTT-videoTestVideo_video9235-shot0_0/img40.jpg,1506,6,0,2022-06-15_07h18.36.588,annotation,2021.2.3,Win32,60.0024001,,
,,,,,,,,,,,,,,,,,0.4140625,0.114583333,1,0,0,image_4,0,42,42,19,1,2010,a close up of a bowl of food on a plate.,M,0,9,MSR-VTT-videoTestVideo_video8776-shot1_0,Images/MSR-VTT-videoTestVideo_video8776-shot1_0/img0.jpg,Images/MSR-VTT-videoTestVideo_video8776-shot1_0/img9.jpg,Images/MSR-VTT-videoTestVideo_video8776-shot1_0/img11.jpg,Images/MSR-VTT-videoTestVideo_video8776-shot1_0/img12.jpg,Images/MSR-VTT-videoTestVideo_video8776-shot1_0/img18.jpg,Images/MSR-VTT-videoTestVideo_video8776-shot1_0/img23.jpg,Images/MSR-VTT-videoTestVideo_video8776-shot1_0/img25.jpg,Images/MSR-VTT-videoTestVideo_video8776-shot1_0/img28.jpg,Images/MSR-VTT-videoTestVideo_video8776-shot1_0/img32.jpg,Images/MSR-VTT-videoTestVideo_video8776-shot1_0/img166.jpg,1966,6,0,2022-06-15_07h18.36.588,annotation,2021.2.3,Win32,60.0024001,,
,,,,,,,,,,,,,,,,,-0.49609375,-0.12890625,1,0,0,image_5,0,43,43,5,1,272,there is a girl looking at the camera and you can not see her hands,H,1,5,MSR-VTT-videoTestVideo_video9454-shot0_2,Images/MSR-VTT-videoTestVideo_video9454-shot0_2/img515.jpg,Images/MSR-VTT-videoTestVideo_video9454-shot0_2/img532.jpg,Images/MSR-VTT-videoTestVideo_video9454-shot0_2/img538.jpg,Images/MSR-VTT-videoTestVideo_video9454-shot0_2/img564.jpg,Images/MSR-VTT-videoTestVideo_video9454-shot0_2/img584.jpg,Images/MSR-VTT-videoTestVideo_video9454-shot0_2/img622.jpg,Images/MSR-VTT-videoTestVideo_video9454-shot0_2/img630.jpg,Images/MSR-VTT-videoTestVideo_video9454-shot0_2/img640.jpg,Images/MSR-VTT-videoTestVideo_video9454-shot0_2/img645.jpg,Images/MSR-VTT-videoTestVideo_video9454-shot0_2/img648.jpg,161,6,0,2022-06-15_07h18.36.588,annotation,2021.2.3,Win32,60.0024001,,
,,,,,,,,,,,,,,,,,-0.462239583,-0.125,1,0,0,image_5,0,44,44,13,1,744,Only the corner/tear duct of her left eye is in the frame. Her lips are parted to reveal top teeth and no black space. ,H,0,4,MSR-VTT-videoTestVideo_video7068-shot2_0,Images/MSR-VTT-videoTestVideo_video7068-shot2_0/img0.jpg,Images/MSR-VTT-videoTestVideo_video7068-shot2_0/img5.jpg,Images/MSR-VTT-videoTestVideo_video7068-shot2_0/img9.jpg,Images/MSR-VTT-videoTestVideo_video7068-shot2_0/img15.jpg,Images/MSR-VTT-videoTestVideo_video7068-shot2_0/img23.jpg,Images/MSR-VTT-videoTestVideo_video7068-shot2_0/img30.jpg,Images/MSR-VTT-videoTestVideo_video7068-shot2_0/img49.jpg,Images/MSR-VTT-videoTestVideo_video7068-shot2_0/img60.jpg,Images/MSR-VTT-videoTestVideo_video7068-shot2_0/img107.jpg,Images/MSR-VTT-videoTestVideo_video7068-shot2_0/img156.jpg,1958,6,0,2022-06-15_07h18.36.588,annotation,2021.2.3,Win32,60.0024001,,
,,,,,,,,,,,,,,,,,0.48046875,-0.125,1,0,0,image_9,0,45,45,48,1,1982,A man is standing on top of a stone steps.,M,0,6,video-storytelling-videocamping_dBXYM3dQTSo-shot26_1,Images/video-storytelling-videocamping_dBXYM3dQTSo-shot26_1/img31.jpg,Images/video-storytelling-videocamping_dBXYM3dQTSo-shot26_1/img40.jpg,Images/video-storytelling-videocamping_dBXYM3dQTSo-shot26_1/img42.jpg,Images/video-storytelling-videocamping_dBXYM3dQTSo-shot26_1/img53.jpg,Images/video-storytelling-videocamping_dBXYM3dQTSo-shot26_1/img64.jpg,Images/video-storytelling-videocamping_dBXYM3dQTSo-shot26_1/img69.jpg,Images/video-storytelling-videocamping_dBXYM3dQTSo-shot26_1/img79.jpg,Images/video-storytelling-videocamping_dBXYM3dQTSo-shot26_1/img83.jpg,Images/video-storytelling-videocamping_dBXYM3dQTSo-shot26_1/img87.jpg,Images/video-storytelling-videocamping_dBXYM3dQTSo-shot26_1/img89.jpg,562,6,0,2022-06-15_07h18.36.588,annotation,2021.2.3,Win32,60.0024001,,
,,,,,,,,,,,,,,,,,-0.01171875,-0.151041667,1,0,0,image_7,0,46,46,22,1,556,The older woman and the younger women have their heads very close together.  The younger woman is smiling and looking down ,H,0,7,MSR-VTT-videoTestVideo_video9682-shot0_3,Images/MSR-VTT-videoTestVideo_video9682-shot0_3/img230.jpg,Images/MSR-VTT-videoTestVideo_video9682-shot0_3/img232.jpg,Images/MSR-VTT-videoTestVideo_video9682-shot0_3/img234.jpg,Images/MSR-VTT-videoTestVideo_video9682-shot0_3/img238.jpg,Images/MSR-VTT-videoTestVideo_video9682-shot0_3/img243.jpg,Images/MSR-VTT-videoTestVideo_video9682-shot0_3/img250.jpg,Images/MSR-VTT-videoTestVideo_video9682-shot0_3/img253.jpg,Images/MSR-VTT-videoTestVideo_video9682-shot0_3/img260.jpg,Images/MSR-VTT-videoTestVideo_video9682-shot0_3/img267.jpg,Images/MSR-VTT-videoTestVideo_video9682-shot0_3/img272.jpg,1935,6,0,2022-06-15_07h18.36.588,annotation,2021.2.3,Win32,60.0024001,,
,,,,,,,,,,,,,,,,,0.005208333,0.158854167,1,0,0,image_2,0,47,47,23,1,2061,A group of people playing a game of Frisbee.,M,1,4,MSR-VTT-videoTestVideo_video7458-shot2_4,Images/MSR-VTT-videoTestVideo_video7458-shot2_4/img201.jpg,Images/MSR-VTT-videoTestVideo_video7458-shot2_4/img208.jpg,Images/MSR-VTT-videoTestVideo_video7458-shot2_4/img213.jpg,Images/MSR-VTT-videoTestVideo_video7458-shot2_4/img222.jpg,Images/MSR-VTT-videoTestVideo_video7458-shot2_4/img238.jpg,Images/MSR-VTT-videoTestVideo_video7458-shot2_4/img252.jpg,Images/MSR-VTT-videoTestVideo_video7458-shot2_4/img254.jpg,Images/MSR-VTT-videoTestVideo_video7458-shot2_4/img255.jpg,Images/MSR-VTT-videoTestVideo_video7458-shot2_4/img297.jpg,Images/MSR-VTT-videoTestVideo_video7458-shot2_4/img308.jpg,1976,6,0,2022-06-15_07h18.36.588,annotation,2021.2.3,Win32,60.0024001,,
,,,,,,,,,,,,,,,,,0.24609375,-0.161458333,1,0,0,image_8,0,48,48,20,1,1979,A table that has a lot of food on it.,M,0,6,MSR-VTT-videoTestVideo_video9525-shot1_1,Images/MSR-VTT-videoTestVideo_video9525-shot1_1/img65.jpg,Images/MSR-VTT-videoTestVideo_video9525-shot1_1/img77.jpg,Images/MSR-VTT-videoTestVideo_video9525-shot1_1/img83.jpg,Images/MSR-VTT-videoTestVideo_video9525-shot1_1/img84.jpg,Images/MSR-VTT-videoTestVideo_video9525-shot1_1/img92.jpg,Images/MSR-VTT-videoTestVideo_video9525-shot1_1/img124.jpg,Images/MSR-VTT-videoTestVideo_video9525-shot1_1/img154.jpg,Images/MSR-VTT-videoTestVideo_video9525-shot1_1/img158.jpg,Images/MSR-VTT-videoTestVideo_video9525-shot1_1/img186.jpg,Images/MSR-VTT-videoTestVideo_video9525-shot1_1/img207.jpg,1967,6,0,2022-06-15_07h18.36.588,annotation,2021.2.3,Win32,60.0024001,,
,,,,,,,,,,,,,,,,,0.485677083,0.143229167,1,0,0,image_4,0,49,49,37,1,1244,A group of people sitting at a table in front of a large crowd of people.,M,0,6,video-storytelling-videowedding_Bp8t824h5NE-shot45_5,Images/video-storytelling-videowedding_Bp8t824h5NE-shot45_5/img1005.jpg,Images/video-storytelling-videowedding_Bp8t824h5NE-shot45_5/img1008.jpg,Images/video-storytelling-videowedding_Bp8t824h5NE-shot45_5/img1013.jpg,Images/video-storytelling-videowedding_Bp8t824h5NE-shot45_5/img1017.jpg,Images/video-storytelling-videowedding_Bp8t824h5NE-shot45_5/img1051.jpg,Images/video-storytelling-videowedding_Bp8t824h5NE-shot45_5/img1071.jpg,Images/video-storytelling-videowedding_Bp8t824h5NE-shot45_5/img1118.jpg,Images/video-storytelling-videowedding_Bp8t824h5NE-shot45_5/img1177.jpg,Images/video-storytelling-videowedding_Bp8t824h5NE-shot45_5/img1201.jpg,Images/video-storytelling-videowedding_Bp8t824h5NE-shot45_5/img1227.jpg,470,6,0,2022-06-15_07h18.36.588,annotation,2021.2.3,Win32,60.0024001,,
,,,,,,,,,,,,,,,,,0.506510417,0.171875,1,0,0,image_4,0,50,50,29,1,1287,A little girl playing with a balloon on the floor.,M,0,2,video-storytelling-videochristmas_5RR_sRzKODA-shot44_2,Images/video-storytelling-videochristmas_5RR_sRzKODA-shot44_2/img99.jpg,Images/video-storytelling-videochristmas_5RR_sRzKODA-shot44_2/img104.jpg,Images/video-storytelling-videochristmas_5RR_sRzKODA-shot44_2/img108.jpg,Images/video-storytelling-videochristmas_5RR_sRzKODA-shot44_2/img118.jpg,Images/video-storytelling-videochristmas_5RR_sRzKODA-shot44_2/img122.jpg,Images/video-storytelling-videochristmas_5RR_sRzKODA-shot44_2/img126.jpg,Images/video-storytelling-videochristmas_5RR_sRzKODA-shot44_2/img129.jpg,Images/video-storytelling-videochristmas_5RR_sRzKODA-shot44_2/img133.jpg,Images/video-storytelling-videochristmas_5RR_sRzKODA-shot44_2/img136.jpg,Images/video-storytelling-videochristmas_5RR_sRzKODA-shot44_2/img139.jpg,1915,6,0,2022-06-15_07h18.36.588,annotation,2021.2.3,Win32,60.0024001,,
,,,,,,,,,,,,,,,,,0,-0.088541667,1,0,0,image_7,0,51,51,44,1,1762,A person holding a pair of scissors on a table.,M,0,8,MSR-VTT-videoTestVideo_video9613-shot1_0,Images/MSR-VTT-videoTestVideo_video9613-shot1_0/img0.jpg,Images/MSR-VTT-videoTestVideo_video9613-shot1_0/img4.jpg,Images/MSR-VTT-videoTestVideo_video9613-shot1_0/img6.jpg,Images/MSR-VTT-videoTestVideo_video9613-shot1_0/img9.jpg,Images/MSR-VTT-videoTestVideo_video9613-shot1_0/img11.jpg,Images/MSR-VTT-videoTestVideo_video9613-shot1_0/img13.jpg,Images/MSR-VTT-videoTestVideo_video9613-shot1_0/img14.jpg,Images/MSR-VTT-videoTestVideo_video9613-shot1_0/img15.jpg,Images/MSR-VTT-videoTestVideo_video9613-shot1_0/img22.jpg,Images/MSR-VTT-videoTestVideo_video9613-shot1_0/img25.jpg,868,6,0,2022-06-15_07h18.36.588,annotation,2021.2.3,Win32,60.0024001,,
,,,,,,,,,,,,,,,,,0.493489583,-0.177083333,1,0,0,image_9,0,52,52,28,1,2058,a close up of a man with a hat on his head.,M,1,1,MSR-VTT-videoTestVideo_video8318-shot0_1,Images/MSR-VTT-videoTestVideo_video8318-shot0_1/img24.jpg,Images/MSR-VTT-videoTestVideo_video8318-shot0_1/img26.jpg,Images/MSR-VTT-videoTestVideo_video8318-shot0_1/img28.jpg,Images/MSR-VTT-videoTestVideo_video8318-shot0_1/img31.jpg,Images/MSR-VTT-videoTestVideo_video8318-shot0_1/img36.jpg,Images/MSR-VTT-videoTestVideo_video8318-shot0_1/img39.jpg,Images/MSR-VTT-videoTestVideo_video8318-shot0_1/img43.jpg,Images/MSR-VTT-videoTestVideo_video8318-shot0_1/img50.jpg,Images/MSR-VTT-videoTestVideo_video8318-shot0_1/img53.jpg,Images/MSR-VTT-videoTestVideo_video8318-shot0_1/img57.jpg,1193,6,0,2022-06-15_07h18.36.588,annotation,2021.2.3,Win32,60.0024001,,
,,,,,,,,,,,,,,,,,0.22265625,-0.138020833,1,0,0,image_8,0,53,53,11,1,779,The woman is bent back with a laugh. Her bracelet is by the blue cap of the water bottle at the end of the table.,H,0,7,MSR-VTT-videoTestVideo_video7578-shot1_0,Images/MSR-VTT-videoTestVideo_video7578-shot1_0/img0.jpg,Images/MSR-VTT-videoTestVideo_video7578-shot1_0/img16.jpg,Images/MSR-VTT-videoTestVideo_video7578-shot1_0/img32.jpg,Images/MSR-VTT-videoTestVideo_video7578-shot1_0/img113.jpg,Images/MSR-VTT-videoTestVideo_video7578-shot1_0/img195.jpg,Images/MSR-VTT-videoTestVideo_video7578-shot1_0/img238.jpg,Images/MSR-VTT-videoTestVideo_video7578-shot1_0/img274.jpg,Images/MSR-VTT-videoTestVideo_video7578-shot1_0/img331.jpg,Images/MSR-VTT-videoTestVideo_video7578-shot1_0/img345.jpg,Images/MSR-VTT-videoTestVideo_video7578-shot1_0/img357.jpg,1214,6,0,2022-06-15_07h18.36.588,annotation,2021.2.3,Win32,60.0024001,,
,,,,,,,,,,,,,,,,,0.270833333,-0.169270833,1,0,0,image_8,0,54,54,10,1,1531,A woman standing in the middle of a kitchen.,M,0,1,video-storytelling-videobirthday_fwpYnUDbusw-shot18_0,Images/video-storytelling-videobirthday_fwpYnUDbusw-shot18_0/img0.jpg,Images/video-storytelling-videobirthday_fwpYnUDbusw-shot18_0/img2.jpg,Images/video-storytelling-videobirthday_fwpYnUDbusw-shot18_0/img10.jpg,Images/video-storytelling-videobirthday_fwpYnUDbusw-shot18_0/img20.jpg,Images/video-storytelling-videobirthday_fwpYnUDbusw-shot18_0/img29.jpg,Images/video-storytelling-videobirthday_fwpYnUDbusw-shot18_0/img37.jpg,Images/video-storytelling-videobirthday_fwpYnUDbusw-shot18_0/img42.jpg,Images/video-storytelling-videobirthday_fwpYnUDbusw-shot18_0/img46.jpg,Images/video-storytelling-videobirthday_fwpYnUDbusw-shot18_0/img53.jpg,Images/video-storytelling-videobirthday_fwpYnUDbusw-shot18_0/img57.jpg,1175,6,0,2022-06-15_07h18.36.588,annotation,2021.2.3,Win32,60.0024001,,
,,,,,,,,,,,,,,,,,0.2265625,-0.104166667,1,0,0,image_8,0,55,55,3,1,1181,A woman sitting in front of a television screen.,M,1,8,MSR-VTT-videoTestVideo_video7698-shot1_0,Images/MSR-VTT-videoTestVideo_video7698-shot1_0/img0.jpg,Images/MSR-VTT-videoTestVideo_video7698-shot1_0/img37.jpg,Images/MSR-VTT-videoTestVideo_video7698-shot1_0/img49.jpg,Images/MSR-VTT-videoTestVideo_video7698-shot1_0/img50.jpg,Images/MSR-VTT-videoTestVideo_video7698-shot1_0/img63.jpg,Images/MSR-VTT-videoTestVideo_video7698-shot1_0/img70.jpg,Images/MSR-VTT-videoTestVideo_video7698-shot1_0/img80.jpg,Images/MSR-VTT-videoTestVideo_video7698-shot1_0/img125.jpg,Images/MSR-VTT-videoTestVideo_video7698-shot1_0/img151.jpg,Images/MSR-VTT-videoTestVideo_video7698-shot1_0/img186.jpg,654,6,0,2022-06-15_07h18.36.588,annotation,2021.2.3,Win32,60.0024001,,
,,,,,,,,,,,,,,,,,0.55078125,-0.165364583,1,0,0,image_9,0,56,56,50,1,733,The boy is laying on his back with his two feet pointed towards the ceiling.,H,0,4,MSR-VTT-videoTestVideo_video9121-shot1_0,Images/MSR-VTT-videoTestVideo_video9121-shot1_0/img0.jpg,Images/MSR-VTT-videoTestVideo_video9121-shot1_0/img8.jpg,Images/MSR-VTT-videoTestVideo_video9121-shot1_0/img20.jpg,Images/MSR-VTT-videoTestVideo_video9121-shot1_0/img30.jpg,Images/MSR-VTT-videoTestVideo_video9121-shot1_0/img37.jpg,Images/MSR-VTT-videoTestVideo_video9121-shot1_0/img44.jpg,Images/MSR-VTT-videoTestVideo_video9121-shot1_0/img47.jpg,Images/MSR-VTT-videoTestVideo_video9121-shot1_0/img49.jpg,Images/MSR-VTT-videoTestVideo_video9121-shot1_0/img54.jpg,Images/MSR-VTT-videoTestVideo_video9121-shot1_0/img66.jpg,1609,6,0,2022-06-15_07h18.36.588,annotation,2021.2.3,Win32,60.0024001,,
,,,,,,,,,,,,,,,,,0.5234375,-0.125,1,0,0,image_9,0,57,57,4,1,774,"The person's left thumb and most of their left forefinger are visible, at top most part, some of their right hand seems to also be visible above the battered pan.",H,0,7,YouCook-video0008-shot2_2,Images/YouCook-video0008-shot2_2/img423.jpg,Images/YouCook-video0008-shot2_2/img425.jpg,Images/YouCook-video0008-shot2_2/img440.jpg,Images/YouCook-video0008-shot2_2/img451.jpg,Images/YouCook-video0008-shot2_2/img458.jpg,Images/YouCook-video0008-shot2_2/img462.jpg,Images/YouCook-video0008-shot2_2/img469.jpg,Images/YouCook-video0008-shot2_2/img488.jpg,Images/YouCook-video0008-shot2_2/img491.jpg,Images/YouCook-video0008-shot2_2/img525.jpg,850,6,0,2022-06-15_07h18.36.588,annotation,2021.2.3,Win32,60.0024001,,
,,,,,,,,,,,,,,,,,0.20703125,0.161458333,1,0,0,image_3,0,58,58,17,1,424,"The girl is looking at the board the guy is holding, her eyes are down and her mouth is open. He is facing her, just the side of his face can be seen, no real details.",H,0,2,MSR-VTT-videoTestVideo_video9583-shot1_0,Images/MSR-VTT-videoTestVideo_video9583-shot1_0/img0.jpg,Images/MSR-VTT-videoTestVideo_video9583-shot1_0/img11.jpg,Images/MSR-VTT-videoTestVideo_video9583-shot1_0/img20.jpg,Images/MSR-VTT-videoTestVideo_video9583-shot1_0/img36.jpg,Images/MSR-VTT-videoTestVideo_video9583-shot1_0/img54.jpg,Images/MSR-VTT-videoTestVideo_video9583-shot1_0/img101.jpg,Images/MSR-VTT-videoTestVideo_video9583-shot1_0/img166.jpg,Images/MSR-VTT-videoTestVideo_video9583-shot1_0/img191.jpg,Images/MSR-VTT-videoTestVideo_video9583-shot1_0/img226.jpg,Images/MSR-VTT-videoTestVideo_video9583-shot1_0/img240.jpg,1254,6,0,2022-06-15_07h18.36.588,annotation,2021.2.3,Win32,60.0024001,,
,,,,,,,,,,,,,,,,,0.47265625,-0.109375,1,0,0,image_9,0,59,59,60,1,2,Green type writer with a red tape. ,H,,9,open-images-531_0dd4eb59d465a8be,Checks/check3/open-images-503_1ccd6fa641154ebbimg7.jpg,Checks/check3/open-images-1852_00faf52058ad28b8img4.jpg,Checks/check3/open-images-386_1b2e28d6d994603eimg1.jpg,Checks/check3/open-images-471_1121e9f97c200ac0img8.jpg,Checks/check3/open-images-1886_3db71eaddb618934img8.jpg,Checks/check3/open-images-1696_20a4ebf0c0f76b05img6.jpg,Checks/check3/open-images-2447_128483a48e1552f4img6.jpg,Checks/check3/open-images-2994_9965cbf8aa20bda0img2.jpg,Checks/check3/open-images-1068_03d63613107970b3img6.jpg,Checks/check3/open-images-531_0dd4eb59d465a8beimg9.jpg,,,1,2022-06-15_07h18.36.588,annotation,2021.2.3,Win32,60.0024001,,
,,,,,,,,,,,,,,,,,0.479166667,-0.127604167,1,0,0,image_9,0,60,60,26,1,1608,A person is holding a large fish in a pan.,M,0,5,YouCook-video0023-shot1_0,Images/YouCook-video0023-shot1_0/img0.jpg,Images/YouCook-video0023-shot1_0/img8.jpg,Images/YouCook-video0023-shot1_0/img12.jpg,Images/YouCook-video0023-shot1_0/img18.jpg,Images/YouCook-video0023-shot1_0/img20.jpg,Images/YouCook-video0023-shot1_0/img24.jpg,Images/YouCook-video0023-shot1_0/img41.jpg,Images/YouCook-video0023-shot1_0/img147.jpg,Images/YouCook-video0023-shot1_0/img194.jpg,Images/YouCook-video0023-shot1_0/img226.jpg,1930,6,0,2022-06-15_07h18.36.588,annotation,2021.2.3,Win32,60.0024001,,
,,,,,,,,,,,,,,,,,0.236979167,-0.111979167,1,0,0,image_8,0,61,61,32,1,1557,A group of people standing next to a car trunk.,M,0,3,video-storytelling-videocamping_1OzbiB1TIWI-shot7_0,Images/video-storytelling-videocamping_1OzbiB1TIWI-shot7_0/img0.jpg,Images/video-storytelling-videocamping_1OzbiB1TIWI-shot7_0/img2.jpg,Images/video-storytelling-videocamping_1OzbiB1TIWI-shot7_0/img9.jpg,Images/video-storytelling-videocamping_1OzbiB1TIWI-shot7_0/img15.jpg,Images/video-storytelling-videocamping_1OzbiB1TIWI-shot7_0/img20.jpg,Images/video-storytelling-videocamping_1OzbiB1TIWI-shot7_0/img22.jpg,Images/video-storytelling-videocamping_1OzbiB1TIWI-shot7_0/img23.jpg,Images/video-storytelling-videocamping_1OzbiB1TIWI-shot7_0/img28.jpg,Images/video-storytelling-videocamping_1OzbiB1TIWI-shot7_0/img35.jpg,Images/video-storytelling-videocamping_1OzbiB1TIWI-shot7_0/img39.jpg,1995,6,0,2022-06-15_07h18.36.588,annotation,2021.2.3,Win32,60.0024001,,
,,,,,,,,,,,,,,,,,0.475260417,0.13671875,1,0,0,image_4,0,62,62,7,1,863,You can clearly see the number on the cake in front of the boy in green for the first time. ,H,0,2,video-storytelling-videobirthday__amwPjAcoC8-shot18_0,Images/video-storytelling-videobirthday__amwPjAcoC8-shot18_0/img0.jpg,Images/video-storytelling-videobirthday__amwPjAcoC8-shot18_0/img5.jpg,Images/video-storytelling-videobirthday__amwPjAcoC8-shot18_0/img11.jpg,Images/video-storytelling-videobirthday__amwPjAcoC8-shot18_0/img18.jpg,Images/video-storytelling-videobirthday__amwPjAcoC8-shot18_0/img29.jpg,Images/video-storytelling-videobirthday__amwPjAcoC8-shot18_0/img38.jpg,Images/video-storytelling-videobirthday__amwPjAcoC8-shot18_0/img47.jpg,Images/video-storytelling-videobirthday__amwPjAcoC8-shot18_0/img55.jpg,Images/video-storytelling-videobirthday__amwPjAcoC8-shot18_0/img61.jpg,Images/video-storytelling-videobirthday__amwPjAcoC8-shot18_0/img72.jpg,596,6,0,2022-06-15_07h18.36.588,annotation,2021.2.3,Win32,60.0024001,,
,,,,,,,,,,,,,,,,,,,,,,,,,,,,,,,,,,,,,,,,,,,,,,,2022-06-15_07h18.36.588,annotation,2021.2.3,Win32,60.0024001,space,37.196
