mturk,key_resp_2.keys,key_resp_2.rt,key_resp_3.keys,key_resp_3.rt,mouse_2.x,mouse_2.y,mouse_2.leftButton,mouse_2.midButton,mouse_2.rightButton,mouse_2.clicked_name,key_resp_5.keys,key_resp_5.rt,key_resp.keys,key_resp.rt,key_resp_6.keys,key_resp_6.rt,mouse.x,mouse.y,mouse.leftButton,mouse.midButton,mouse.rightButton,mouse.clicked_name,trials.thisRepN,trials.thisTrialN,trials.thisN,trials.thisIndex,trials.ran,N,caption,class_caption,model_guessed,target_idx,image_set,img1,img2,img3,img4,img5,img6,img7,img8,img9,img10,Q_id,block,is_check,date,expName,psychopyVersion,OS,frameRate,key_resp_7.keys,key_resp_7.rt
9363897,space,51.2527,space,1.3044,0.292222222,0.142222222,1,0,0,ex4,space,33.6715,space,0.8146,space,1.8366,0.545555556,-0.142222222,1,0,0,image_9,0,0,0,43,1,1782,A little boy is using a cell phone on a table.,M,1,6,video-storytelling-videobirthday__amwPjAcoC8-shot39_3,Images/video-storytelling-videobirthday__amwPjAcoC8-shot39_3/img89.jpg,Images/video-storytelling-videobirthday__amwPjAcoC8-shot39_3/img91.jpg,Images/video-storytelling-videobirthday__amwPjAcoC8-shot39_3/img93.jpg,Images/video-storytelling-videobirthday__amwPjAcoC8-shot39_3/img100.jpg,Images/video-storytelling-videobirthday__amwPjAcoC8-shot39_3/img102.jpg,Images/video-storytelling-videobirthday__amwPjAcoC8-shot39_3/img105.jpg,Images/video-storytelling-videobirthday__amwPjAcoC8-shot39_3/img108.jpg,Images/video-storytelling-videobirthday__amwPjAcoC8-shot39_3/img110.jpg,Images/video-storytelling-videobirthday__amwPjAcoC8-shot39_3/img112.jpg,Images/video-storytelling-videobirthday__amwPjAcoC8-shot39_3/img114.jpg,1470,17,0,2022-06-15_12h49.42.691,annotation,2021.2.3,Win32,69.31447979,,
,,,,,,,,,,,,,,,,,-0.44,-0.164444444,1,0,0,image_5,0,1,1,34,1,837,A wrist and hand holding an object coming in from the left side of the image. You can't see much of their forearm at all. ,H,0,5,video-storytelling-videobirthday_fwpYnUDbusw-shot63_5,Images/video-storytelling-videobirthday_fwpYnUDbusw-shot63_5/img193.jpg,Images/video-storytelling-videobirthday_fwpYnUDbusw-shot63_5/img199.jpg,Images/video-storytelling-videobirthday_fwpYnUDbusw-shot63_5/img205.jpg,Images/video-storytelling-videobirthday_fwpYnUDbusw-shot63_5/img233.jpg,Images/video-storytelling-videobirthday_fwpYnUDbusw-shot63_5/img235.jpg,Images/video-storytelling-videobirthday_fwpYnUDbusw-shot63_5/img240.jpg,Images/video-storytelling-videobirthday_fwpYnUDbusw-shot63_5/img245.jpg,Images/video-storytelling-videobirthday_fwpYnUDbusw-shot63_5/img251.jpg,Images/video-storytelling-videobirthday_fwpYnUDbusw-shot63_5/img255.jpg,Images/video-storytelling-videobirthday_fwpYnUDbusw-shot63_5/img270.jpg,1576,17,0,2022-06-15_12h49.42.691,annotation,2021.2.3,Win32,69.31447979,,
,,,,,,,,,,,,,,,,,0.551111111,-0.12,1,0,0,image_9,0,2,2,1,1,297,"The baby kangaroo face is clearly seen, not too blurry, with only a small part of the ear missing.",H,0,9,MSR-VTT-videoTestVideo_video9415-shot1_8,Images/MSR-VTT-videoTestVideo_video9415-shot1_8/img262.jpg,Images/MSR-VTT-videoTestVideo_video9415-shot1_8/img264.jpg,Images/MSR-VTT-videoTestVideo_video9415-shot1_8/img267.jpg,Images/MSR-VTT-videoTestVideo_video9415-shot1_8/img268.jpg,Images/MSR-VTT-videoTestVideo_video9415-shot1_8/img270.jpg,Images/MSR-VTT-videoTestVideo_video9415-shot1_8/img271.jpg,Images/MSR-VTT-videoTestVideo_video9415-shot1_8/img273.jpg,Images/MSR-VTT-videoTestVideo_video9415-shot1_8/img274.jpg,Images/MSR-VTT-videoTestVideo_video9415-shot1_8/img278.jpg,Images/MSR-VTT-videoTestVideo_video9415-shot1_8/img285.jpg,77,17,0,2022-06-15_12h49.42.691,annotation,2021.2.3,Win32,69.31447979,,
,,,,,,,,,,,,,,,,,-0.258888889,-0.15,1,0,0,image_6,0,3,3,15,1,1261,A dog sitting on a couch next to a laptop.,M,0,6,video-storytelling-videochristmas_5RR_sRzKODA-shot28_0,Images/video-storytelling-videochristmas_5RR_sRzKODA-shot28_0/img0.jpg,Images/video-storytelling-videochristmas_5RR_sRzKODA-shot28_0/img3.jpg,Images/video-storytelling-videochristmas_5RR_sRzKODA-shot28_0/img7.jpg,Images/video-storytelling-videochristmas_5RR_sRzKODA-shot28_0/img11.jpg,Images/video-storytelling-videochristmas_5RR_sRzKODA-shot28_0/img14.jpg,Images/video-storytelling-videochristmas_5RR_sRzKODA-shot28_0/img23.jpg,Images/video-storytelling-videochristmas_5RR_sRzKODA-shot28_0/img30.jpg,Images/video-storytelling-videochristmas_5RR_sRzKODA-shot28_0/img36.jpg,Images/video-storytelling-videochristmas_5RR_sRzKODA-shot28_0/img50.jpg,Images/video-storytelling-videochristmas_5RR_sRzKODA-shot28_0/img54.jpg,104,17,0,2022-06-15_12h49.42.691,annotation,2021.2.3,Win32,69.31447979,,
,,,,,,,,,,,,,,,,,-0.062222222,-0.175555556,1,0,0,image_7,0,4,4,9,1,543,You can only see one foot of the woman on the ground on the left hand side of the picture. ,H,0,7,video-storytelling-videobirthday_fwpYnUDbusw-shot18_9,Images/video-storytelling-videobirthday_fwpYnUDbusw-shot18_9/img432.jpg,Images/video-storytelling-videobirthday_fwpYnUDbusw-shot18_9/img434.jpg,Images/video-storytelling-videobirthday_fwpYnUDbusw-shot18_9/img435.jpg,Images/video-storytelling-videobirthday_fwpYnUDbusw-shot18_9/img438.jpg,Images/video-storytelling-videobirthday_fwpYnUDbusw-shot18_9/img442.jpg,Images/video-storytelling-videobirthday_fwpYnUDbusw-shot18_9/img449.jpg,Images/video-storytelling-videobirthday_fwpYnUDbusw-shot18_9/img456.jpg,Images/video-storytelling-videobirthday_fwpYnUDbusw-shot18_9/img461.jpg,Images/video-storytelling-videobirthday_fwpYnUDbusw-shot18_9/img463.jpg,Images/video-storytelling-videobirthday_fwpYnUDbusw-shot18_9/img469.jpg,1160,17,0,2022-06-15_12h49.42.691,annotation,2021.2.3,Win32,69.31447979,,
,,,,,,,,,,,,,,,,,0.286666667,0.086666667,1,0,0,image_3,0,5,5,11,1,1266,A man sitting on a bench with a cell phone in his hand.,M,1,1,video-storytelling-videocamping_EytINruY3-U-shot43_1,Images/video-storytelling-videocamping_EytINruY3-U-shot43_1/img109.jpg,Images/video-storytelling-videocamping_EytINruY3-U-shot43_1/img119.jpg,Images/video-storytelling-videocamping_EytINruY3-U-shot43_1/img132.jpg,Images/video-storytelling-videocamping_EytINruY3-U-shot43_1/img169.jpg,Images/video-storytelling-videocamping_EytINruY3-U-shot43_1/img250.jpg,Images/video-storytelling-videocamping_EytINruY3-U-shot43_1/img301.jpg,Images/video-storytelling-videocamping_EytINruY3-U-shot43_1/img309.jpg,Images/video-storytelling-videocamping_EytINruY3-U-shot43_1/img312.jpg,Images/video-storytelling-videocamping_EytINruY3-U-shot43_1/img314.jpg,Images/video-storytelling-videocamping_EytINruY3-U-shot43_1/img326.jpg,1313,17,0,2022-06-15_12h49.42.691,annotation,2021.2.3,Win32,69.31447979,,
,,,,,,,,,,,,,,,,,0.007777778,0.114444444,1,0,0,image_2,0,6,6,49,1,237,There is a brighter twig in the shot.  All of a sudden the flames all started to go higher off of the lighter twig into the image.  ,H,0,4,video-storytelling-videocamping_EytINruY3-U-shot19_0,Images/video-storytelling-videocamping_EytINruY3-U-shot19_0/img0.jpg,Images/video-storytelling-videocamping_EytINruY3-U-shot19_0/img4.jpg,Images/video-storytelling-videocamping_EytINruY3-U-shot19_0/img27.jpg,Images/video-storytelling-videocamping_EytINruY3-U-shot19_0/img65.jpg,Images/video-storytelling-videocamping_EytINruY3-U-shot19_0/img72.jpg,Images/video-storytelling-videocamping_EytINruY3-U-shot19_0/img109.jpg,Images/video-storytelling-videocamping_EytINruY3-U-shot19_0/img111.jpg,Images/video-storytelling-videocamping_EytINruY3-U-shot19_0/img113.jpg,Images/video-storytelling-videocamping_EytINruY3-U-shot19_0/img129.jpg,Images/video-storytelling-videocamping_EytINruY3-U-shot19_0/img154.jpg,1513,17,0,2022-06-15_12h49.42.691,annotation,2021.2.3,Win32,69.31447979,,
,,,,,,,,,,,,,,,,,-0.454444444,-0.091111111,1,0,0,image_5,0,7,7,48,1,119,Dumping chocolate batter into a cake pan. Chocolate is at the edge of the bowl but none has fallen in the cake pan yet,H,0,7,YouCook-video0008-shot2_0,Images/YouCook-video0008-shot2_0/img0.jpg,Images/YouCook-video0008-shot2_0/img49.jpg,Images/YouCook-video0008-shot2_0/img56.jpg,Images/YouCook-video0008-shot2_0/img71.jpg,Images/YouCook-video0008-shot2_0/img78.jpg,Images/YouCook-video0008-shot2_0/img215.jpg,Images/YouCook-video0008-shot2_0/img223.jpg,Images/YouCook-video0008-shot2_0/img259.jpg,Images/YouCook-video0008-shot2_0/img293.jpg,Images/YouCook-video0008-shot2_0/img339.jpg,292,17,0,2022-06-15_12h49.42.691,annotation,2021.2.3,Win32,69.31447979,,
,,,,,,,,,,,,,,,,,0.498888889,-0.193333333,1,0,0,image_9,0,8,8,40,1,1835,A close up of a dog swimming in the water.,M,0,4,video-storytelling-videocamping_dBXYM3dQTSo-shot42_1,Images/video-storytelling-videocamping_dBXYM3dQTSo-shot42_1/img66.jpg,Images/video-storytelling-videocamping_dBXYM3dQTSo-shot42_1/img75.jpg,Images/video-storytelling-videocamping_dBXYM3dQTSo-shot42_1/img80.jpg,Images/video-storytelling-videocamping_dBXYM3dQTSo-shot42_1/img83.jpg,Images/video-storytelling-videocamping_dBXYM3dQTSo-shot42_1/img84.jpg,Images/video-storytelling-videocamping_dBXYM3dQTSo-shot42_1/img85.jpg,Images/video-storytelling-videocamping_dBXYM3dQTSo-shot42_1/img92.jpg,Images/video-storytelling-videocamping_dBXYM3dQTSo-shot42_1/img94.jpg,Images/video-storytelling-videocamping_dBXYM3dQTSo-shot42_1/img100.jpg,Images/video-storytelling-videocamping_dBXYM3dQTSo-shot42_1/img106.jpg,1593,17,0,2022-06-15_12h49.42.691,annotation,2021.2.3,Win32,69.31447979,,
,,,,,,,,,,,,,,,,,0.505555556,-0.165555556,1,0,0,image_9,0,9,9,23,1,176,"The child is looking at the camera, and some of his thumb and pointer finger are visible behind the product. ",H,0,5,video-storytelling-videochristmas_5RR_sRzKODA-shot23_5,Images/video-storytelling-videochristmas_5RR_sRzKODA-shot23_5/img226.jpg,Images/video-storytelling-videochristmas_5RR_sRzKODA-shot23_5/img236.jpg,Images/video-storytelling-videochristmas_5RR_sRzKODA-shot23_5/img243.jpg,Images/video-storytelling-videochristmas_5RR_sRzKODA-shot23_5/img254.jpg,Images/video-storytelling-videochristmas_5RR_sRzKODA-shot23_5/img256.jpg,Images/video-storytelling-videochristmas_5RR_sRzKODA-shot23_5/img261.jpg,Images/video-storytelling-videochristmas_5RR_sRzKODA-shot23_5/img263.jpg,Images/video-storytelling-videochristmas_5RR_sRzKODA-shot23_5/img264.jpg,Images/video-storytelling-videochristmas_5RR_sRzKODA-shot23_5/img266.jpg,Images/video-storytelling-videochristmas_5RR_sRzKODA-shot23_5/img267.jpg,1054,17,0,2022-06-15_12h49.42.691,annotation,2021.2.3,Win32,69.31447979,,
,,,,,,,,,,,,,,,,,0.436666667,-0.184444444,1,0,0,image_9,0,10,10,53,1,597,There is a man covered in a white substance.  He has just moved a bit and you can see part of the woman's face in the background. ,H,1,8,MSR-VTT-videoTestVideo_video7137-shot1_1,Images/MSR-VTT-videoTestVideo_video7137-shot1_1/img74.jpg,Images/MSR-VTT-videoTestVideo_video7137-shot1_1/img79.jpg,Images/MSR-VTT-videoTestVideo_video7137-shot1_1/img96.jpg,Images/MSR-VTT-videoTestVideo_video7137-shot1_1/img116.jpg,Images/MSR-VTT-videoTestVideo_video7137-shot1_1/img129.jpg,Images/MSR-VTT-videoTestVideo_video7137-shot1_1/img134.jpg,Images/MSR-VTT-videoTestVideo_video7137-shot1_1/img139.jpg,Images/MSR-VTT-videoTestVideo_video7137-shot1_1/img147.jpg,Images/MSR-VTT-videoTestVideo_video7137-shot1_1/img152.jpg,Images/MSR-VTT-videoTestVideo_video7137-shot1_1/img158.jpg,67,17,0,2022-06-15_12h49.42.691,annotation,2021.2.3,Win32,69.31447979,,
,,,,,,,,,,,,,,,,,0.494444444,-0.143333333,1,0,0,image_9,0,11,11,6,1,1921,A person is cooking fish in a pot.,M,0,3,YouCook-video0023-shot1_0,Images/YouCook-video0023-shot1_0/img0.jpg,Images/YouCook-video0023-shot1_0/img8.jpg,Images/YouCook-video0023-shot1_0/img12.jpg,Images/YouCook-video0023-shot1_0/img18.jpg,Images/YouCook-video0023-shot1_0/img20.jpg,Images/YouCook-video0023-shot1_0/img24.jpg,Images/YouCook-video0023-shot1_0/img41.jpg,Images/YouCook-video0023-shot1_0/img147.jpg,Images/YouCook-video0023-shot1_0/img194.jpg,Images/YouCook-video0023-shot1_0/img226.jpg,1299,17,0,2022-06-15_12h49.42.691,annotation,2021.2.3,Win32,69.31447979,,
,,,,,,,,,,,,,,,,,0.484444444,-0.173333333,1,0,0,image_9,0,12,12,39,1,1674,A little girl is playing with a boat in the water.,M,0,3,video-storytelling-videobirthday__amwPjAcoC8-shot63_2,Images/video-storytelling-videobirthday__amwPjAcoC8-shot63_2/img58.jpg,Images/video-storytelling-videobirthday__amwPjAcoC8-shot63_2/img60.jpg,Images/video-storytelling-videobirthday__amwPjAcoC8-shot63_2/img62.jpg,Images/video-storytelling-videobirthday__amwPjAcoC8-shot63_2/img64.jpg,Images/video-storytelling-videobirthday__amwPjAcoC8-shot63_2/img72.jpg,Images/video-storytelling-videobirthday__amwPjAcoC8-shot63_2/img76.jpg,Images/video-storytelling-videobirthday__amwPjAcoC8-shot63_2/img80.jpg,Images/video-storytelling-videobirthday__amwPjAcoC8-shot63_2/img83.jpg,Images/video-storytelling-videobirthday__amwPjAcoC8-shot63_2/img87.jpg,Images/video-storytelling-videobirthday__amwPjAcoC8-shot63_2/img91.jpg,40,17,0,2022-06-15_12h49.42.691,annotation,2021.2.3,Win32,69.31447979,,
,,,,,,,,,,,,,,,,,0.454444444,-0.115555556,1,0,0,image_9,0,13,13,60,1,2,Green type writer with a red tape. ,H,,9,open-images-531_0dd4eb59d465a8be,Checks/check3/open-images-503_1ccd6fa641154ebbimg7.jpg,Checks/check3/open-images-1852_00faf52058ad28b8img4.jpg,Checks/check3/open-images-386_1b2e28d6d994603eimg1.jpg,Checks/check3/open-images-471_1121e9f97c200ac0img8.jpg,Checks/check3/open-images-1886_3db71eaddb618934img8.jpg,Checks/check3/open-images-1696_20a4ebf0c0f76b05img6.jpg,Checks/check3/open-images-2447_128483a48e1552f4img6.jpg,Checks/check3/open-images-2994_9965cbf8aa20bda0img2.jpg,Checks/check3/open-images-1068_03d63613107970b3img6.jpg,Checks/check3/open-images-531_0dd4eb59d465a8beimg9.jpg,,,1,2022-06-15_12h49.42.691,annotation,2021.2.3,Win32,69.31447979,,
,,,,,,,,,,,,,,,,,0.258888889,0.122222222,1,0,0,image_3,0,14,14,4,1,730,The persons fist is clenched on the top left and appears to be slightly blurry.,H,0,5,YouCook-video0035-shot5_1,Images/YouCook-video0035-shot5_1/img74.jpg,Images/YouCook-video0035-shot5_1/img86.jpg,Images/YouCook-video0035-shot5_1/img95.jpg,Images/YouCook-video0035-shot5_1/img98.jpg,Images/YouCook-video0035-shot5_1/img99.jpg,Images/YouCook-video0035-shot5_1/img147.jpg,Images/YouCook-video0035-shot5_1/img155.jpg,Images/YouCook-video0035-shot5_1/img156.jpg,Images/YouCook-video0035-shot5_1/img164.jpg,Images/YouCook-video0035-shot5_1/img167.jpg,699,17,0,2022-06-15_12h49.42.691,annotation,2021.2.3,Win32,69.31447979,,
,,,,,,,,,,,,,,,,,-0.024444444,0.162222222,1,0,0,image_2,0,15,15,21,1,720,The man in white's entire head can be seen and his mouth is open while talking to the man beside him. ,H,1,2,MSR-VTT-videoTestVideo_video9579-shot1_0,Images/MSR-VTT-videoTestVideo_video9579-shot1_0/img0.jpg,Images/MSR-VTT-videoTestVideo_video9579-shot1_0/img7.jpg,Images/MSR-VTT-videoTestVideo_video9579-shot1_0/img29.jpg,Images/MSR-VTT-videoTestVideo_video9579-shot1_0/img36.jpg,Images/MSR-VTT-videoTestVideo_video9579-shot1_0/img51.jpg,Images/MSR-VTT-videoTestVideo_video9579-shot1_0/img84.jpg,Images/MSR-VTT-videoTestVideo_video9579-shot1_0/img98.jpg,Images/MSR-VTT-videoTestVideo_video9579-shot1_0/img125.jpg,Images/MSR-VTT-videoTestVideo_video9579-shot1_0/img151.jpg,Images/MSR-VTT-videoTestVideo_video9579-shot1_0/img197.jpg,1828,17,0,2022-06-15_12h49.42.691,annotation,2021.2.3,Win32,69.31447979,,
,,,,,,,,,,,,,,,,,-0.01,0.125555556,1,0,0,image_2,0,16,16,5,1,1697,A woman holding a cake in front of a refrigerator.,M,0,2,video-storytelling-videobirthday_fwpYnUDbusw-shot18_5,Images/video-storytelling-videobirthday_fwpYnUDbusw-shot18_5/img262.jpg,Images/video-storytelling-videobirthday_fwpYnUDbusw-shot18_5/img269.jpg,Images/video-storytelling-videobirthday_fwpYnUDbusw-shot18_5/img275.jpg,Images/video-storytelling-videobirthday_fwpYnUDbusw-shot18_5/img279.jpg,Images/video-storytelling-videobirthday_fwpYnUDbusw-shot18_5/img292.jpg,Images/video-storytelling-videobirthday_fwpYnUDbusw-shot18_5/img304.jpg,Images/video-storytelling-videobirthday_fwpYnUDbusw-shot18_5/img307.jpg,Images/video-storytelling-videobirthday_fwpYnUDbusw-shot18_5/img313.jpg,Images/video-storytelling-videobirthday_fwpYnUDbusw-shot18_5/img324.jpg,Images/video-storytelling-videobirthday_fwpYnUDbusw-shot18_5/img327.jpg,1315,17,0,2022-06-15_12h49.42.691,annotation,2021.2.3,Win32,69.31447979,,
,,,,,,,,,,,,,,,,,-0.235555556,-0.156666667,1,0,0,image_6,0,17,17,37,1,1229,A close up of a railing that has a light on it.,M,0,4,MSR-VTT-videoTestVideo_video9274-shot2_0,Images/MSR-VTT-videoTestVideo_video9274-shot2_0/img0.jpg,Images/MSR-VTT-videoTestVideo_video9274-shot2_0/img2.jpg,Images/MSR-VTT-videoTestVideo_video9274-shot2_0/img5.jpg,Images/MSR-VTT-videoTestVideo_video9274-shot2_0/img8.jpg,Images/MSR-VTT-videoTestVideo_video9274-shot2_0/img9.jpg,Images/MSR-VTT-videoTestVideo_video9274-shot2_0/img11.jpg,Images/MSR-VTT-videoTestVideo_video9274-shot2_0/img13.jpg,Images/MSR-VTT-videoTestVideo_video9274-shot2_0/img19.jpg,Images/MSR-VTT-videoTestVideo_video9274-shot2_0/img24.jpg,Images/MSR-VTT-videoTestVideo_video9274-shot2_0/img26.jpg,1993,17,0,2022-06-15_12h49.42.691,annotation,2021.2.3,Win32,69.31447979,,
,,,,,,,,,,,,,,,,,-0.032222222,0.138888889,1,0,0,image_2,0,18,18,58,1,0,Pair of black gloves,H,,2,open-images-510_3a241cb30d6e5319,Checks/check1/open-images-225_1442c0d0ef23d58bimg3.jpg,Checks/check1/open-images-2759_3a42708fe77398b7img8.jpg,Checks/check1/open-images-510_3a241cb30d6e5319img2.jpg,Checks/check1/open-images-2209_02c98146fb93ff17img1.jpg,Checks/check1/open-images-1553_0f128317e56a9d2fimg9.jpg,Checks/check1/open-images-2666_044d7c6d11e6b493img8.jpg,Checks/check1/open-images-2880_159294646083f545img4.jpg,Checks/check1/open-images-609_2dc0baa993a2bd25img5.jpg,Checks/check1/open-images-1854_2b15616b4f1080e7img2.jpg,Checks/check1/open-images-1435_1b0ce31951048765img8.jpg,,,1,2022-06-15_12h49.42.691,annotation,2021.2.3,Win32,69.31447979,,
,,,,,,,,,,,,,,,,,0.503333333,-0.083333333,1,0,0,image_9,0,19,19,55,1,1278,A woman holding a frisbee in front of a crowd of people.,M,1,5,video-storytelling-videocamping_1OzbiB1TIWI-shot43_12,Images/video-storytelling-videocamping_1OzbiB1TIWI-shot43_12/img663.jpg,Images/video-storytelling-videocamping_1OzbiB1TIWI-shot43_12/img666.jpg,Images/video-storytelling-videocamping_1OzbiB1TIWI-shot43_12/img668.jpg,Images/video-storytelling-videocamping_1OzbiB1TIWI-shot43_12/img673.jpg,Images/video-storytelling-videocamping_1OzbiB1TIWI-shot43_12/img676.jpg,Images/video-storytelling-videocamping_1OzbiB1TIWI-shot43_12/img679.jpg,Images/video-storytelling-videocamping_1OzbiB1TIWI-shot43_12/img686.jpg,Images/video-storytelling-videocamping_1OzbiB1TIWI-shot43_12/img690.jpg,Images/video-storytelling-videocamping_1OzbiB1TIWI-shot43_12/img694.jpg,Images/video-storytelling-videocamping_1OzbiB1TIWI-shot43_12/img699.jpg,1537,17,0,2022-06-15_12h49.42.691,annotation,2021.2.3,Win32,69.31447979,,
,,,,,,,,,,,,,,,,,0.494444444,-0.151111111,1,0,0,image_9,0,20,20,14,1,1619,A woman holding a bowl of cereal in front of a freezer.,M,0,7,YouCook-video0013-shot0_0,Images/YouCook-video0013-shot0_0/img0.jpg,Images/YouCook-video0013-shot0_0/img5.jpg,Images/YouCook-video0013-shot0_0/img12.jpg,Images/YouCook-video0013-shot0_0/img22.jpg,Images/YouCook-video0013-shot0_0/img28.jpg,Images/YouCook-video0013-shot0_0/img33.jpg,Images/YouCook-video0013-shot0_0/img40.jpg,Images/YouCook-video0013-shot0_0/img44.jpg,Images/YouCook-video0013-shot0_0/img49.jpg,Images/YouCook-video0013-shot0_0/img52.jpg,1381,17,0,2022-06-15_12h49.42.691,annotation,2021.2.3,Win32,69.31447979,,
,,,,,,,,,,,,,,,,,0.511111111,-0.092222222,1,0,0,image_9,0,21,21,52,1,1039,"You can fully see both of the characters eyes. Also, you can see both of the girl's hands.",H,0,3,video-storytelling-videobirthday__amwPjAcoC8-shot14_1,Images/video-storytelling-videobirthday__amwPjAcoC8-shot14_1/img27.jpg,Images/video-storytelling-videobirthday__amwPjAcoC8-shot14_1/img30.jpg,Images/video-storytelling-videobirthday__amwPjAcoC8-shot14_1/img32.jpg,Images/video-storytelling-videobirthday__amwPjAcoC8-shot14_1/img35.jpg,Images/video-storytelling-videobirthday__amwPjAcoC8-shot14_1/img38.jpg,Images/video-storytelling-videobirthday__amwPjAcoC8-shot14_1/img41.jpg,Images/video-storytelling-videobirthday__amwPjAcoC8-shot14_1/img43.jpg,Images/video-storytelling-videobirthday__amwPjAcoC8-shot14_1/img45.jpg,Images/video-storytelling-videobirthday__amwPjAcoC8-shot14_1/img47.jpg,Images/video-storytelling-videobirthday__amwPjAcoC8-shot14_1/img51.jpg,171,17,0,2022-06-15_12h49.42.691,annotation,2021.2.3,Win32,69.31447979,,
,,,,,,,,,,,,,,,,,0.477777778,0.101111111,1,0,0,image_4,0,22,22,10,1,442,The woman is smiling with her teeth showing and touching the tip of her nose. ,H,0,4,MSR-VTT-videoTestVideo_video7533-shot1_8,Images/MSR-VTT-videoTestVideo_video7533-shot1_8/img687.jpg,Images/MSR-VTT-videoTestVideo_video7533-shot1_8/img689.jpg,Images/MSR-VTT-videoTestVideo_video7533-shot1_8/img692.jpg,Images/MSR-VTT-videoTestVideo_video7533-shot1_8/img697.jpg,Images/MSR-VTT-videoTestVideo_video7533-shot1_8/img709.jpg,Images/MSR-VTT-videoTestVideo_video7533-shot1_8/img714.jpg,Images/MSR-VTT-videoTestVideo_video7533-shot1_8/img721.jpg,Images/MSR-VTT-videoTestVideo_video7533-shot1_8/img734.jpg,Images/MSR-VTT-videoTestVideo_video7533-shot1_8/img738.jpg,Images/MSR-VTT-videoTestVideo_video7533-shot1_8/img756.jpg,505,17,0,2022-06-15_12h49.42.691,annotation,2021.2.3,Win32,69.31447979,,
,,,,,,,,,,,,,,,,,0.036666667,-0.108888889,1,0,0,image_7,0,23,23,35,1,1008,Her head is touching the top of the photo. Her mouth is pursed and her eyes are open. She is facing forward and looking straight ahead.,H,0,3,MSR-VTT-videoTestVideo_video8904-shot1_1,Images/MSR-VTT-videoTestVideo_video8904-shot1_1/img67.jpg,Images/MSR-VTT-videoTestVideo_video8904-shot1_1/img86.jpg,Images/MSR-VTT-videoTestVideo_video8904-shot1_1/img92.jpg,Images/MSR-VTT-videoTestVideo_video8904-shot1_1/img120.jpg,Images/MSR-VTT-videoTestVideo_video8904-shot1_1/img123.jpg,Images/MSR-VTT-videoTestVideo_video8904-shot1_1/img128.jpg,Images/MSR-VTT-videoTestVideo_video8904-shot1_1/img147.jpg,Images/MSR-VTT-videoTestVideo_video8904-shot1_1/img157.jpg,Images/MSR-VTT-videoTestVideo_video8904-shot1_1/img161.jpg,Images/MSR-VTT-videoTestVideo_video8904-shot1_1/img168.jpg,1285,17,0,2022-06-15_12h49.42.691,annotation,2021.2.3,Win32,69.31447979,,
,,,,,,,,,,,,,,,,,-0.504444444,-0.075555556,1,0,0,image_5,0,24,24,27,1,1241,A man standing in front of a fence with a banana on his head.,M,0,3,MSR-VTT-videoTestVideo_video8630-shot1_3,Images/MSR-VTT-videoTestVideo_video8630-shot1_3/img188.jpg,Images/MSR-VTT-videoTestVideo_video8630-shot1_3/img189.jpg,Images/MSR-VTT-videoTestVideo_video8630-shot1_3/img191.jpg,Images/MSR-VTT-videoTestVideo_video8630-shot1_3/img193.jpg,Images/MSR-VTT-videoTestVideo_video8630-shot1_3/img196.jpg,Images/MSR-VTT-videoTestVideo_video8630-shot1_3/img200.jpg,Images/MSR-VTT-videoTestVideo_video8630-shot1_3/img202.jpg,Images/MSR-VTT-videoTestVideo_video8630-shot1_3/img206.jpg,Images/MSR-VTT-videoTestVideo_video8630-shot1_3/img213.jpg,Images/MSR-VTT-videoTestVideo_video8630-shot1_3/img220.jpg,372,17,0,2022-06-15_12h49.42.691,annotation,2021.2.3,Win32,69.31447979,,
,,,,,,,,,,,,,,,,,0.26,0.137777778,1,0,0,image_3,0,25,25,33,1,1376,A man standing next to a woman in a kitchen.,M,0,3,MSR-VTT-videoTestVideo_video7939-shot1_0,Images/MSR-VTT-videoTestVideo_video7939-shot1_0/img0.jpg,Images/MSR-VTT-videoTestVideo_video7939-shot1_0/img6.jpg,Images/MSR-VTT-videoTestVideo_video7939-shot1_0/img29.jpg,Images/MSR-VTT-videoTestVideo_video7939-shot1_0/img62.jpg,Images/MSR-VTT-videoTestVideo_video7939-shot1_0/img81.jpg,Images/MSR-VTT-videoTestVideo_video7939-shot1_0/img101.jpg,Images/MSR-VTT-videoTestVideo_video7939-shot1_0/img113.jpg,Images/MSR-VTT-videoTestVideo_video7939-shot1_0/img125.jpg,Images/MSR-VTT-videoTestVideo_video7939-shot1_0/img184.jpg,Images/MSR-VTT-videoTestVideo_video7939-shot1_0/img201.jpg,1989,17,0,2022-06-15_12h49.42.691,annotation,2021.2.3,Win32,69.31447979,,
,,,,,,,,,,,,,,,,,-0.221111111,-0.152222222,1,0,0,image_6,0,26,26,50,1,635,The man in black has his hand on the chest of the man in blue. His hand is below the green writing.,H,1,6,MSR-VTT-videoTestVideo_video8801-shot2_0,Images/MSR-VTT-videoTestVideo_video8801-shot2_0/img1.jpg,Images/MSR-VTT-videoTestVideo_video8801-shot2_0/img13.jpg,Images/MSR-VTT-videoTestVideo_video8801-shot2_0/img34.jpg,Images/MSR-VTT-videoTestVideo_video8801-shot2_0/img60.jpg,Images/MSR-VTT-videoTestVideo_video8801-shot2_0/img84.jpg,Images/MSR-VTT-videoTestVideo_video8801-shot2_0/img90.jpg,Images/MSR-VTT-videoTestVideo_video8801-shot2_0/img110.jpg,Images/MSR-VTT-videoTestVideo_video8801-shot2_0/img157.jpg,Images/MSR-VTT-videoTestVideo_video8801-shot2_0/img196.jpg,Images/MSR-VTT-videoTestVideo_video8801-shot2_0/img200.jpg,1793,17,0,2022-06-15_12h49.42.691,annotation,2021.2.3,Win32,69.31447979,,
,,,,,,,,,,,,,,,,,-0.444444444,-0.14,1,0,0,image_5,0,27,27,22,1,456,There is no blue text at the bottom of the screen. There is some water surrounded by light brown sand on the right side of the image. ,H,0,5,MSR-VTT-videoTestVideo_video8931-shot1_0,Images/MSR-VTT-videoTestVideo_video8931-shot1_0/img22.jpg,Images/MSR-VTT-videoTestVideo_video8931-shot1_0/img38.jpg,Images/MSR-VTT-videoTestVideo_video8931-shot1_0/img64.jpg,Images/MSR-VTT-videoTestVideo_video8931-shot1_0/img117.jpg,Images/MSR-VTT-videoTestVideo_video8931-shot1_0/img130.jpg,Images/MSR-VTT-videoTestVideo_video8931-shot1_0/img223.jpg,Images/MSR-VTT-videoTestVideo_video8931-shot1_0/img247.jpg,Images/MSR-VTT-videoTestVideo_video8931-shot1_0/img249.jpg,Images/MSR-VTT-videoTestVideo_video8931-shot1_0/img263.jpg,Images/MSR-VTT-videoTestVideo_video8931-shot1_0/img275.jpg,1395,17,0,2022-06-15_12h49.42.691,annotation,2021.2.3,Win32,69.31447979,,
,,,,,,,,,,,,,,,,,-0.017777778,-0.183333333,1,0,0,image_7,0,28,28,2,1,1340,A person holding a bowl of fried eggs on a table.,M,0,2,YouCook-video0010-shot1_1,Images/YouCook-video0010-shot1_1/img165.jpg,Images/YouCook-video0010-shot1_1/img179.jpg,Images/YouCook-video0010-shot1_1/img189.jpg,Images/YouCook-video0010-shot1_1/img201.jpg,Images/YouCook-video0010-shot1_1/img213.jpg,Images/YouCook-video0010-shot1_1/img216.jpg,Images/YouCook-video0010-shot1_1/img226.jpg,Images/YouCook-video0010-shot1_1/img235.jpg,Images/YouCook-video0010-shot1_1/img240.jpg,Images/YouCook-video0010-shot1_1/img251.jpg,536,17,0,2022-06-15_12h49.42.691,annotation,2021.2.3,Win32,69.31447979,,
,,,,,,,,,,,,,,,,,0.468888889,-0.103333333,1,0,0,image_9,0,29,29,56,1,1023,There is a large pan that fills up the photo. A piece of aluminum foil is visible at the top right. You can just barely see the image of a hand at the bottom right.,H,1,5,MSR-VTT-videoTestVideo_video7925-shot1_2,Images/MSR-VTT-videoTestVideo_video7925-shot1_2/img272.jpg,Images/MSR-VTT-videoTestVideo_video7925-shot1_2/img273.jpg,Images/MSR-VTT-videoTestVideo_video7925-shot1_2/img275.jpg,Images/MSR-VTT-videoTestVideo_video7925-shot1_2/img276.jpg,Images/MSR-VTT-videoTestVideo_video7925-shot1_2/img277.jpg,Images/MSR-VTT-videoTestVideo_video7925-shot1_2/img278.jpg,Images/MSR-VTT-videoTestVideo_video7925-shot1_2/img280.jpg,Images/MSR-VTT-videoTestVideo_video7925-shot1_2/img285.jpg,Images/MSR-VTT-videoTestVideo_video7925-shot1_2/img290.jpg,Images/MSR-VTT-videoTestVideo_video7925-shot1_2/img294.jpg,225,17,0,2022-06-15_12h49.42.691,annotation,2021.2.3,Win32,69.31447979,,
,,,,,,,,,,,,,,,,,-0.461111111,-0.161111111,1,0,0,image_5,0,30,30,29,1,2037,A young child holding a video game controller.,M,0,4,video-storytelling-videochristmas_5RR_sRzKODA-shot23_7,Images/video-storytelling-videochristmas_5RR_sRzKODA-shot23_7/img300.jpg,Images/video-storytelling-videochristmas_5RR_sRzKODA-shot23_7/img305.jpg,Images/video-storytelling-videochristmas_5RR_sRzKODA-shot23_7/img307.jpg,Images/video-storytelling-videochristmas_5RR_sRzKODA-shot23_7/img311.jpg,Images/video-storytelling-videochristmas_5RR_sRzKODA-shot23_7/img313.jpg,Images/video-storytelling-videochristmas_5RR_sRzKODA-shot23_7/img317.jpg,Images/video-storytelling-videochristmas_5RR_sRzKODA-shot23_7/img319.jpg,Images/video-storytelling-videochristmas_5RR_sRzKODA-shot23_7/img321.jpg,Images/video-storytelling-videochristmas_5RR_sRzKODA-shot23_7/img326.jpg,Images/video-storytelling-videochristmas_5RR_sRzKODA-shot23_7/img329.jpg,1973,17,0,2022-06-15_12h49.42.691,annotation,2021.2.3,Win32,69.31447979,,
,,,,,,,,,,,,,,,,,-0.437777778,-0.156666667,1,0,0,image_5,0,31,31,30,1,1642,A basketball player sitting on a court with a basketball.,M,1,8,MSR-VTT-videoTestVideo_video8465-shot1_4,Images/MSR-VTT-videoTestVideo_video8465-shot1_4/img312.jpg,Images/MSR-VTT-videoTestVideo_video8465-shot1_4/img317.jpg,Images/MSR-VTT-videoTestVideo_video8465-shot1_4/img324.jpg,Images/MSR-VTT-videoTestVideo_video8465-shot1_4/img332.jpg,Images/MSR-VTT-videoTestVideo_video8465-shot1_4/img336.jpg,Images/MSR-VTT-videoTestVideo_video8465-shot1_4/img342.jpg,Images/MSR-VTT-videoTestVideo_video8465-shot1_4/img345.jpg,Images/MSR-VTT-videoTestVideo_video8465-shot1_4/img348.jpg,Images/MSR-VTT-videoTestVideo_video8465-shot1_4/img351.jpg,Images/MSR-VTT-videoTestVideo_video8465-shot1_4/img354.jpg,56,17,0,2022-06-15_12h49.42.691,annotation,2021.2.3,Win32,69.31447979,,
,,,,,,,,,,,,,,,,,0.224444444,0.126666667,1,0,0,image_3,0,32,32,13,1,627,A slightly blurry person looks upwards and to the right while golf clapping,H,0,3,MSR-VTT-videoTestVideo_video8321-shot0_1,Images/MSR-VTT-videoTestVideo_video8321-shot0_1/img238.jpg,Images/MSR-VTT-videoTestVideo_video8321-shot0_1/img249.jpg,Images/MSR-VTT-videoTestVideo_video8321-shot0_1/img256.jpg,Images/MSR-VTT-videoTestVideo_video8321-shot0_1/img263.jpg,Images/MSR-VTT-videoTestVideo_video8321-shot0_1/img268.jpg,Images/MSR-VTT-videoTestVideo_video8321-shot0_1/img286.jpg,Images/MSR-VTT-videoTestVideo_video8321-shot0_1/img289.jpg,Images/MSR-VTT-videoTestVideo_video8321-shot0_1/img297.jpg,Images/MSR-VTT-videoTestVideo_video8321-shot0_1/img311.jpg,Images/MSR-VTT-videoTestVideo_video8321-shot0_1/img333.jpg,136,17,0,2022-06-15_12h49.42.691,annotation,2021.2.3,Win32,69.31447979,,
,,,,,,,,,,,,,,,,,-0.5,-0.16,1,0,0,image_5,0,33,33,59,1,1,The only picture of a hawk.  It is looking to the left.  You see lots of branches and darker blue sky. ,H,,5,open-images-958_686caac9c5b322e7,Checks/check2/open-images-2603_1b5152f01f0093e7img3.jpg,Checks/check2/open-images-1836_069810916ce5d675img8.jpg,Checks/check2/open-images-974_0748fdedc4bf8b7bimg2.jpg,Checks/check2/open-images-617_01fb725fb1aa7b04img6.jpg,Checks/check2/open-images-507_047769e1f977cd97img2.jpg,Checks/check2/open-images-958_686caac9c5b322e7img5.jpg,Checks/check2/open-images-1278_21851d9bf5dc05c9img7.jpg,Checks/check2/open-images-2424_05f04546e01499f2img0.jpg,Checks/check2/open-images-1529_1442b11a10a6aeadimg3.jpg,Checks/check2/open-images-514_2c523ddedc2561d4img1.jpg,,,1,2022-06-15_12h49.42.691,annotation,2021.2.3,Win32,69.31447979,,
,,,,,,,,,,,,,,,,,-0.453333333,0.157777778,1,0,0,image_0,0,34,34,38,1,2012,A group of people sitting on a lawn with a cell phone.,M,0,9,video-storytelling-videowedding_Bp8t824h5NE-shot46_0,Images/video-storytelling-videowedding_Bp8t824h5NE-shot46_0/img0.jpg,Images/video-storytelling-videowedding_Bp8t824h5NE-shot46_0/img9.jpg,Images/video-storytelling-videowedding_Bp8t824h5NE-shot46_0/img20.jpg,Images/video-storytelling-videowedding_Bp8t824h5NE-shot46_0/img27.jpg,Images/video-storytelling-videowedding_Bp8t824h5NE-shot46_0/img39.jpg,Images/video-storytelling-videowedding_Bp8t824h5NE-shot46_0/img50.jpg,Images/video-storytelling-videowedding_Bp8t824h5NE-shot46_0/img61.jpg,Images/video-storytelling-videowedding_Bp8t824h5NE-shot46_0/img65.jpg,Images/video-storytelling-videowedding_Bp8t824h5NE-shot46_0/img76.jpg,Images/video-storytelling-videowedding_Bp8t824h5NE-shot46_0/img81.jpg,1590,17,0,2022-06-15_12h49.42.691,annotation,2021.2.3,Win32,69.31447979,,
,,,,,,,,,,,,,,,,,-0.202222222,0.155555556,1,0,0,image_1,0,35,35,31,1,529,There is some overlay with a man in the center left of the shot.  You can still barely read the letters below and to the left of him. ,H,0,3,MSR-VTT-videoTestVideo_video7412-shot1_0,Images/MSR-VTT-videoTestVideo_video7412-shot1_0/img0.jpg,Images/MSR-VTT-videoTestVideo_video7412-shot1_0/img8.jpg,Images/MSR-VTT-videoTestVideo_video7412-shot1_0/img12.jpg,Images/MSR-VTT-videoTestVideo_video7412-shot1_0/img16.jpg,Images/MSR-VTT-videoTestVideo_video7412-shot1_0/img18.jpg,Images/MSR-VTT-videoTestVideo_video7412-shot1_0/img20.jpg,Images/MSR-VTT-videoTestVideo_video7412-shot1_0/img66.jpg,Images/MSR-VTT-videoTestVideo_video7412-shot1_0/img70.jpg,Images/MSR-VTT-videoTestVideo_video7412-shot1_0/img72.jpg,Images/MSR-VTT-videoTestVideo_video7412-shot1_0/img80.jpg,911,17,0,2022-06-15_12h49.42.691,annotation,2021.2.3,Win32,69.31447979,,
,,,,,,,,,,,,,,,,,0.507777778,-0.137777778,1,0,0,image_9,0,36,36,46,1,834,"The custard is cut into quarters. There seems to be another image overlaid on the top, like a transition scene, but it's hard to tell what it is. It looks like the edge of a dish is shown in the upper left quarter. No cutting instrument is visible.",H,0,9,MSR-VTT-videoTestVideo_video7406-shot1_2,Images/MSR-VTT-videoTestVideo_video7406-shot1_2/img441.jpg,Images/MSR-VTT-videoTestVideo_video7406-shot1_2/img447.jpg,Images/MSR-VTT-videoTestVideo_video7406-shot1_2/img453.jpg,Images/MSR-VTT-videoTestVideo_video7406-shot1_2/img457.jpg,Images/MSR-VTT-videoTestVideo_video7406-shot1_2/img487.jpg,Images/MSR-VTT-videoTestVideo_video7406-shot1_2/img582.jpg,Images/MSR-VTT-videoTestVideo_video7406-shot1_2/img585.jpg,Images/MSR-VTT-videoTestVideo_video7406-shot1_2/img591.jpg,Images/MSR-VTT-videoTestVideo_video7406-shot1_2/img593.jpg,Images/MSR-VTT-videoTestVideo_video7406-shot1_2/img662.jpg,2061,17,0,2022-06-15_12h49.42.691,annotation,2021.2.3,Win32,69.31447979,,
,,,,,,,,,,,,,,,,,0.011111111,0.127777778,1,0,0,image_2,0,37,37,47,1,1267,A man in a blue t-shirt holding a tube of ice.,M,1,2,video-storytelling-videocamping_EytINruY3-U-shot43_1,Images/video-storytelling-videocamping_EytINruY3-U-shot43_1/img109.jpg,Images/video-storytelling-videocamping_EytINruY3-U-shot43_1/img119.jpg,Images/video-storytelling-videocamping_EytINruY3-U-shot43_1/img132.jpg,Images/video-storytelling-videocamping_EytINruY3-U-shot43_1/img169.jpg,Images/video-storytelling-videocamping_EytINruY3-U-shot43_1/img250.jpg,Images/video-storytelling-videocamping_EytINruY3-U-shot43_1/img301.jpg,Images/video-storytelling-videocamping_EytINruY3-U-shot43_1/img309.jpg,Images/video-storytelling-videocamping_EytINruY3-U-shot43_1/img312.jpg,Images/video-storytelling-videocamping_EytINruY3-U-shot43_1/img314.jpg,Images/video-storytelling-videocamping_EytINruY3-U-shot43_1/img326.jpg,265,17,0,2022-06-15_12h49.42.691,annotation,2021.2.3,Win32,69.31447979,,
,,,,,,,,,,,,,,,,,0.442222222,-0.106666667,1,0,0,image_9,0,38,38,57,1,1447,A person jumping up and down in the air.,M,0,2,MSR-VTT-videoTestVideo_video7686-shot3_0,Images/MSR-VTT-videoTestVideo_video7686-shot3_0/img0.jpg,Images/MSR-VTT-videoTestVideo_video7686-shot3_0/img1.jpg,Images/MSR-VTT-videoTestVideo_video7686-shot3_0/img2.jpg,Images/MSR-VTT-videoTestVideo_video7686-shot3_0/img4.jpg,Images/MSR-VTT-videoTestVideo_video7686-shot3_0/img5.jpg,Images/MSR-VTT-videoTestVideo_video7686-shot3_0/img7.jpg,Images/MSR-VTT-videoTestVideo_video7686-shot3_0/img9.jpg,Images/MSR-VTT-videoTestVideo_video7686-shot3_0/img12.jpg,Images/MSR-VTT-videoTestVideo_video7686-shot3_0/img13.jpg,Images/MSR-VTT-videoTestVideo_video7686-shot3_0/img15.jpg,414,17,0,2022-06-15_12h49.42.691,annotation,2021.2.3,Win32,69.31447979,,
,,,,,,,,,,,,,,,,,0.273333333,-0.163333333,1,0,0,image_8,0,39,39,42,1,1251,A dog sitting on the floor next to a hot dog.,M,0,8,MSR-VTT-videoTestVideo_video8027-shot1_0,Images/MSR-VTT-videoTestVideo_video8027-shot1_0/img0.jpg,Images/MSR-VTT-videoTestVideo_video8027-shot1_0/img4.jpg,Images/MSR-VTT-videoTestVideo_video8027-shot1_0/img7.jpg,Images/MSR-VTT-videoTestVideo_video8027-shot1_0/img8.jpg,Images/MSR-VTT-videoTestVideo_video8027-shot1_0/img13.jpg,Images/MSR-VTT-videoTestVideo_video8027-shot1_0/img34.jpg,Images/MSR-VTT-videoTestVideo_video8027-shot1_0/img52.jpg,Images/MSR-VTT-videoTestVideo_video8027-shot1_0/img57.jpg,Images/MSR-VTT-videoTestVideo_video8027-shot1_0/img65.jpg,Images/MSR-VTT-videoTestVideo_video8027-shot1_0/img73.jpg,876,17,0,2022-06-15_12h49.42.691,annotation,2021.2.3,Win32,69.31447979,,
,,,,,,,,,,,,,,,,,0.046666667,-0.186666667,1,0,0,image_7,0,40,40,25,1,902,The woman is staring straight forward with the pitcher covering part of her right upper torso. Her left hand has the thumb sticking up while the other fingers are not spread apart.,H,0,6,YouCook-video0063-shot19_1,Images/YouCook-video0063-shot19_1/img118.jpg,Images/YouCook-video0063-shot19_1/img147.jpg,Images/YouCook-video0063-shot19_1/img164.jpg,Images/YouCook-video0063-shot19_1/img247.jpg,Images/YouCook-video0063-shot19_1/img442.jpg,Images/YouCook-video0063-shot19_1/img452.jpg,Images/YouCook-video0063-shot19_1/img483.jpg,Images/YouCook-video0063-shot19_1/img487.jpg,Images/YouCook-video0063-shot19_1/img666.jpg,Images/YouCook-video0063-shot19_1/img673.jpg,688,17,0,2022-06-15_12h49.42.691,annotation,2021.2.3,Win32,69.31447979,,
,,,,,,,,,,,,,,,,,0.461111111,0.196666667,1,0,0,image_4,0,41,41,54,1,776,There is a woman sitting on the couch behind the baby but you can only see her left leg and arm.  You can't see her face at all. ,H,0,4,video-storytelling-videochristmas_5RR_sRzKODA-shot30_0,Images/video-storytelling-videochristmas_5RR_sRzKODA-shot30_0/img0.jpg,Images/video-storytelling-videochristmas_5RR_sRzKODA-shot30_0/img24.jpg,Images/video-storytelling-videochristmas_5RR_sRzKODA-shot30_0/img64.jpg,Images/video-storytelling-videochristmas_5RR_sRzKODA-shot30_0/img100.jpg,Images/video-storytelling-videochristmas_5RR_sRzKODA-shot30_0/img130.jpg,Images/video-storytelling-videochristmas_5RR_sRzKODA-shot30_0/img134.jpg,Images/video-storytelling-videochristmas_5RR_sRzKODA-shot30_0/img135.jpg,Images/video-storytelling-videochristmas_5RR_sRzKODA-shot30_0/img137.jpg,Images/video-storytelling-videochristmas_5RR_sRzKODA-shot30_0/img138.jpg,Images/video-storytelling-videochristmas_5RR_sRzKODA-shot30_0/img141.jpg,937,17,0,2022-06-15_12h49.42.691,annotation,2021.2.3,Win32,69.31447979,,
,,,,,,,,,,,,,,,,,-0.243333333,-0.14,1,0,0,image_6,0,42,42,16,1,1551,A man in a suit and tie stands in front of a crowd.,M,0,0,MSR-VTT-videoTestVideo_video9634-shot1_0,Images/MSR-VTT-videoTestVideo_video9634-shot1_0/img2.jpg,Images/MSR-VTT-videoTestVideo_video9634-shot1_0/img14.jpg,Images/MSR-VTT-videoTestVideo_video9634-shot1_0/img33.jpg,Images/MSR-VTT-videoTestVideo_video9634-shot1_0/img39.jpg,Images/MSR-VTT-videoTestVideo_video9634-shot1_0/img51.jpg,Images/MSR-VTT-videoTestVideo_video9634-shot1_0/img92.jpg,Images/MSR-VTT-videoTestVideo_video9634-shot1_0/img121.jpg,Images/MSR-VTT-videoTestVideo_video9634-shot1_0/img158.jpg,Images/MSR-VTT-videoTestVideo_video9634-shot1_0/img204.jpg,Images/MSR-VTT-videoTestVideo_video9634-shot1_0/img254.jpg,354,17,0,2022-06-15_12h49.42.691,annotation,2021.2.3,Win32,69.31447979,,
,,,,,,,,,,,,,,,,,-0.266666667,0.183333333,1,0,0,image_1,0,43,43,62,1,4,A penguin holding a piece of paper with text on it. ,H,,1,open-images-2521_074d6af730ed17a6,Checks/check5/open-images-509_4d8bd994cb8c6eaeimg0.jpg,Checks/check5/open-images-2521_074d6af730ed17a6img1.jpg,Checks/check5/open-images-1365_a00a5fde334ae45aimg4.jpg,Checks/check5/open-images-1602_44092afdeab39e73img6.jpg,Checks/check5/open-images-1032_059f3cdfb85ee0ceimg3.jpg,Checks/check5/open-images-727_25b77fff36adba66img2.jpg,Checks/check5/open-images-2208_0fb92b9978d98575img2.jpg,Checks/check5/open-images-1305_05769e6abb16fdc8img9.jpg,Checks/check5/open-images-2676_052dbf7b4899430bimg1.jpg,Checks/check5/open-images-2569_1e81d79bb796a2dbimg7.jpg,,,1,2022-06-15_12h49.42.691,annotation,2021.2.3,Win32,69.31447979,,
,,,,,,,,,,,,,,,,,-0.012222222,0.172222222,1,0,0,image_2,0,44,44,0,1,1338,Two bowls of eggs in a bowl on a table.,M,0,0,YouCook-video0010-shot1_1,Images/YouCook-video0010-shot1_1/img165.jpg,Images/YouCook-video0010-shot1_1/img179.jpg,Images/YouCook-video0010-shot1_1/img189.jpg,Images/YouCook-video0010-shot1_1/img201.jpg,Images/YouCook-video0010-shot1_1/img213.jpg,Images/YouCook-video0010-shot1_1/img216.jpg,Images/YouCook-video0010-shot1_1/img226.jpg,Images/YouCook-video0010-shot1_1/img235.jpg,Images/YouCook-video0010-shot1_1/img240.jpg,Images/YouCook-video0010-shot1_1/img251.jpg,540,17,0,2022-06-15_12h49.42.691,annotation,2021.2.3,Win32,69.31447979,,
,,,,,,,,,,,,,,,,,0.537777778,-0.093333333,1,0,0,image_9,0,45,45,12,1,1989,A photo of a cartoon bear with a bee on his head.,M,0,7,video-storytelling-videobirthday__amwPjAcoC8-shot80_4,Images/video-storytelling-videobirthday__amwPjAcoC8-shot80_4/img196.jpg,Images/video-storytelling-videobirthday__amwPjAcoC8-shot80_4/img223.jpg,Images/video-storytelling-videobirthday__amwPjAcoC8-shot80_4/img233.jpg,Images/video-storytelling-videobirthday__amwPjAcoC8-shot80_4/img241.jpg,Images/video-storytelling-videobirthday__amwPjAcoC8-shot80_4/img250.jpg,Images/video-storytelling-videobirthday__amwPjAcoC8-shot80_4/img257.jpg,Images/video-storytelling-videobirthday__amwPjAcoC8-shot80_4/img260.jpg,Images/video-storytelling-videobirthday__amwPjAcoC8-shot80_4/img272.jpg,Images/video-storytelling-videobirthday__amwPjAcoC8-shot80_4/img274.jpg,Images/video-storytelling-videobirthday__amwPjAcoC8-shot80_4/img276.jpg,1341,17,0,2022-06-15_12h49.42.691,annotation,2021.2.3,Win32,69.31447979,,
,,,,,,,,,,,,,,,,,0.455555556,-0.181111111,1,0,0,image_9,0,46,46,8,1,60,front driver tire about to drive up on sidewak,H,0,8,MSR-VTT-videoTestVideo_video8468-shot1_0,Images/MSR-VTT-videoTestVideo_video8468-shot1_0/img0.jpg,Images/MSR-VTT-videoTestVideo_video8468-shot1_0/img7.jpg,Images/MSR-VTT-videoTestVideo_video8468-shot1_0/img9.jpg,Images/MSR-VTT-videoTestVideo_video8468-shot1_0/img22.jpg,Images/MSR-VTT-videoTestVideo_video8468-shot1_0/img39.jpg,Images/MSR-VTT-videoTestVideo_video8468-shot1_0/img47.jpg,Images/MSR-VTT-videoTestVideo_video8468-shot1_0/img63.jpg,Images/MSR-VTT-videoTestVideo_video8468-shot1_0/img67.jpg,Images/MSR-VTT-videoTestVideo_video8468-shot1_0/img83.jpg,Images/MSR-VTT-videoTestVideo_video8468-shot1_0/img86.jpg,1031,17,0,2022-06-15_12h49.42.691,annotation,2021.2.3,Win32,69.31447979,,
,,,,,,,,,,,,,,,,,0.433333333,-0.142222222,1,0,0,image_9,0,47,47,41,1,1011,A large amount of the hand towel hanging on the oven door is visible.,H,0,0,MSR-VTT-videoTestVideo_video8456-shot1_1,Images/MSR-VTT-videoTestVideo_video8456-shot1_1/img64.jpg,Images/MSR-VTT-videoTestVideo_video8456-shot1_1/img70.jpg,Images/MSR-VTT-videoTestVideo_video8456-shot1_1/img74.jpg,Images/MSR-VTT-videoTestVideo_video8456-shot1_1/img81.jpg,Images/MSR-VTT-videoTestVideo_video8456-shot1_1/img86.jpg,Images/MSR-VTT-videoTestVideo_video8456-shot1_1/img93.jpg,Images/MSR-VTT-videoTestVideo_video8456-shot1_1/img98.jpg,Images/MSR-VTT-videoTestVideo_video8456-shot1_1/img102.jpg,Images/MSR-VTT-videoTestVideo_video8456-shot1_1/img105.jpg,Images/MSR-VTT-videoTestVideo_video8456-shot1_1/img111.jpg,1784,17,0,2022-06-15_12h49.42.691,annotation,2021.2.3,Win32,69.31447979,,
,,,,,,,,,,,,,,,,,-0.061111111,-0.137777778,1,0,0,image_7,0,48,48,18,1,5,Just the first letter in the text at the bottom has completely faded away.,H,0,7,MSR-VTT-videoTestVideo_video8282-shot0_0,Images/MSR-VTT-videoTestVideo_video8282-shot0_0/img0.jpg,Images/MSR-VTT-videoTestVideo_video8282-shot0_0/img4.jpg,Images/MSR-VTT-videoTestVideo_video8282-shot0_0/img7.jpg,Images/MSR-VTT-videoTestVideo_video8282-shot0_0/img10.jpg,Images/MSR-VTT-videoTestVideo_video8282-shot0_0/img15.jpg,Images/MSR-VTT-videoTestVideo_video8282-shot0_0/img18.jpg,Images/MSR-VTT-videoTestVideo_video8282-shot0_0/img20.jpg,Images/MSR-VTT-videoTestVideo_video8282-shot0_0/img21.jpg,Images/MSR-VTT-videoTestVideo_video8282-shot0_0/img24.jpg,Images/MSR-VTT-videoTestVideo_video8282-shot0_0/img27.jpg,1125,17,0,2022-06-15_12h49.42.691,annotation,2021.2.3,Win32,69.31447979,,
,,,,,,,,,,,,,,,,,-0.494444444,-0.154444444,1,0,0,image_5,0,49,49,20,1,200,There is no bridesmaid or part of bridesmaid in the image.  The woman in left front with the white and black dress is looking towards the back.,H,0,6,video-storytelling-videowedding_Bp8t824h5NE-shot45_5,Images/video-storytelling-videowedding_Bp8t824h5NE-shot45_5/img1005.jpg,Images/video-storytelling-videowedding_Bp8t824h5NE-shot45_5/img1008.jpg,Images/video-storytelling-videowedding_Bp8t824h5NE-shot45_5/img1013.jpg,Images/video-storytelling-videowedding_Bp8t824h5NE-shot45_5/img1017.jpg,Images/video-storytelling-videowedding_Bp8t824h5NE-shot45_5/img1051.jpg,Images/video-storytelling-videowedding_Bp8t824h5NE-shot45_5/img1071.jpg,Images/video-storytelling-videowedding_Bp8t824h5NE-shot45_5/img1118.jpg,Images/video-storytelling-videowedding_Bp8t824h5NE-shot45_5/img1177.jpg,Images/video-storytelling-videowedding_Bp8t824h5NE-shot45_5/img1201.jpg,Images/video-storytelling-videowedding_Bp8t824h5NE-shot45_5/img1227.jpg,1847,17,0,2022-06-15_12h49.42.691,annotation,2021.2.3,Win32,69.31447979,,
,,,,,,,,,,,,,,,,,0.536666667,0.14,1,0,0,image_4,0,50,50,44,1,362,A picture of a cartoon man standing upright.  His hands are both near his side. ,H,0,4,MSR-VTT-videoTestVideo_video9537-shot0_0,Images/MSR-VTT-videoTestVideo_video9537-shot0_0/img0.jpg,Images/MSR-VTT-videoTestVideo_video9537-shot0_0/img9.jpg,Images/MSR-VTT-videoTestVideo_video9537-shot0_0/img10.jpg,Images/MSR-VTT-videoTestVideo_video9537-shot0_0/img13.jpg,Images/MSR-VTT-videoTestVideo_video9537-shot0_0/img14.jpg,Images/MSR-VTT-videoTestVideo_video9537-shot0_0/img15.jpg,Images/MSR-VTT-videoTestVideo_video9537-shot0_0/img18.jpg,Images/MSR-VTT-videoTestVideo_video9537-shot0_0/img20.jpg,Images/MSR-VTT-videoTestVideo_video9537-shot0_0/img21.jpg,Images/MSR-VTT-videoTestVideo_video9537-shot0_0/img43.jpg,311,17,0,2022-06-15_12h49.42.691,annotation,2021.2.3,Win32,69.31447979,,
,,,,,,,,,,,,,,,,,0.216666667,-0.124444444,1,0,0,image_8,0,51,51,51,1,748,The sign with a yellow stripe above three objects on it is the furthest thing to the bottom left of the wall visible,H,0,7,MSR-VTT-videoTestVideo_video8129-shot1_6,Images/MSR-VTT-videoTestVideo_video8129-shot1_6/img645.jpg,Images/MSR-VTT-videoTestVideo_video8129-shot1_6/img648.jpg,Images/MSR-VTT-videoTestVideo_video8129-shot1_6/img650.jpg,Images/MSR-VTT-videoTestVideo_video8129-shot1_6/img657.jpg,Images/MSR-VTT-videoTestVideo_video8129-shot1_6/img660.jpg,Images/MSR-VTT-videoTestVideo_video8129-shot1_6/img681.jpg,Images/MSR-VTT-videoTestVideo_video8129-shot1_6/img723.jpg,Images/MSR-VTT-videoTestVideo_video8129-shot1_6/img750.jpg,Images/MSR-VTT-videoTestVideo_video8129-shot1_6/img767.jpg,Images/MSR-VTT-videoTestVideo_video8129-shot1_6/img787.jpg,1757,17,0,2022-06-15_12h49.42.691,annotation,2021.2.3,Win32,69.31447979,,
,,,,,,,,,,,,,,,,,0.022222222,0.183333333,1,0,0,image_2,0,52,52,61,1,3,A grey elephant with golden leaves on it. ,H,,2,open-images-1745_0ed62fe71809b2f5,Checks/check4/open-images-2609_3f72daeb23764ecfimg6.jpg,Checks/check4/open-images-1928_60679e2899870e08img1.jpg,Checks/check4/open-images-1745_0ed62fe71809b2f5img2.jpg,Checks/check4/open-images-1811_9ae6351c7f7565edimg0.jpg,Checks/check4/open-images-1721_6f04da11945ea492img3.jpg,Checks/check4/open-images-1907_5f9be3e4ea5e22c7img2.jpg,Checks/check4/open-images-580_0ddffb9c25141999img1.jpg,Checks/check4/open-images-2924_0645dcbcf998fed9img3.jpg,Checks/check4/open-images-869_856ecbcb5faf76e3img8.jpg,Checks/check4/open-images-250_02039517e63a91fbimg1.jpg,,,1,2022-06-15_12h49.42.691,annotation,2021.2.3,Win32,69.31447979,,
,,,,,,,,,,,,,,,,,0.543333333,-0.146666667,1,0,0,image_9,0,53,53,26,1,110,The gun is pointed exactly at the very back end of a large truck but not pointed at a wheel. ,H,0,7,MSR-VTT-videoTestVideo_video8356-shot1_0,Images/MSR-VTT-videoTestVideo_video8356-shot1_0/img0.jpg,Images/MSR-VTT-videoTestVideo_video8356-shot1_0/img6.jpg,Images/MSR-VTT-videoTestVideo_video8356-shot1_0/img11.jpg,Images/MSR-VTT-videoTestVideo_video8356-shot1_0/img32.jpg,Images/MSR-VTT-videoTestVideo_video8356-shot1_0/img36.jpg,Images/MSR-VTT-videoTestVideo_video8356-shot1_0/img40.jpg,Images/MSR-VTT-videoTestVideo_video8356-shot1_0/img46.jpg,Images/MSR-VTT-videoTestVideo_video8356-shot1_0/img55.jpg,Images/MSR-VTT-videoTestVideo_video8356-shot1_0/img63.jpg,Images/MSR-VTT-videoTestVideo_video8356-shot1_0/img67.jpg,1831,17,0,2022-06-15_12h49.42.691,annotation,2021.2.3,Win32,69.31447979,,
,,,,,,,,,,,,,,,,,-0.263333333,0.094444444,1,0,0,image_1,0,54,54,19,1,472,The topmost figure is just left of the midpoint of the square and the figure at top right is just right of the line and facing it.,H,1,5,MSR-VTT-videoTestVideo_video7622-shot4_1,Images/MSR-VTT-videoTestVideo_video7622-shot4_1/img39.jpg,Images/MSR-VTT-videoTestVideo_video7622-shot4_1/img43.jpg,Images/MSR-VTT-videoTestVideo_video7622-shot4_1/img54.jpg,Images/MSR-VTT-videoTestVideo_video7622-shot4_1/img60.jpg,Images/MSR-VTT-videoTestVideo_video7622-shot4_1/img61.jpg,Images/MSR-VTT-videoTestVideo_video7622-shot4_1/img66.jpg,Images/MSR-VTT-videoTestVideo_video7622-shot4_1/img71.jpg,Images/MSR-VTT-videoTestVideo_video7622-shot4_1/img80.jpg,Images/MSR-VTT-videoTestVideo_video7622-shot4_1/img82.jpg,Images/MSR-VTT-videoTestVideo_video7622-shot4_1/img87.jpg,144,17,0,2022-06-15_12h49.42.691,annotation,2021.2.3,Win32,69.31447979,,
,,,,,,,,,,,,,,,,,0.481111111,0.174444444,1,0,0,image_4,0,55,55,36,1,1905,A little boy playing with a bucket of sand on the beach.,M,0,3,MSR-VTT-videoTestVideo_video9338-shot1_2,Images/MSR-VTT-videoTestVideo_video9338-shot1_2/img361.jpg,Images/MSR-VTT-videoTestVideo_video9338-shot1_2/img364.jpg,Images/MSR-VTT-videoTestVideo_video9338-shot1_2/img374.jpg,Images/MSR-VTT-videoTestVideo_video9338-shot1_2/img384.jpg,Images/MSR-VTT-videoTestVideo_video9338-shot1_2/img392.jpg,Images/MSR-VTT-videoTestVideo_video9338-shot1_2/img411.jpg,Images/MSR-VTT-videoTestVideo_video9338-shot1_2/img424.jpg,Images/MSR-VTT-videoTestVideo_video9338-shot1_2/img429.jpg,Images/MSR-VTT-videoTestVideo_video9338-shot1_2/img443.jpg,Images/MSR-VTT-videoTestVideo_video9338-shot1_2/img448.jpg,1747,17,0,2022-06-15_12h49.42.691,annotation,2021.2.3,Win32,69.31447979,,
,,,,,,,,,,,,,,,,,-0.466666667,-0.161111111,1,0,0,image_5,0,56,56,3,1,391,Nearly the entire body of the woman is seen with only the bottom of her feet off the bottom of the image.  Her hands are out to her sides,H,0,5,MSR-VTT-videoTestVideo_video9044-shot0_0,Images/MSR-VTT-videoTestVideo_video9044-shot0_0/img0.jpg,Images/MSR-VTT-videoTestVideo_video9044-shot0_0/img4.jpg,Images/MSR-VTT-videoTestVideo_video9044-shot0_0/img10.jpg,Images/MSR-VTT-videoTestVideo_video9044-shot0_0/img13.jpg,Images/MSR-VTT-videoTestVideo_video9044-shot0_0/img25.jpg,Images/MSR-VTT-videoTestVideo_video9044-shot0_0/img31.jpg,Images/MSR-VTT-videoTestVideo_video9044-shot0_0/img39.jpg,Images/MSR-VTT-videoTestVideo_video9044-shot0_0/img43.jpg,Images/MSR-VTT-videoTestVideo_video9044-shot0_0/img46.jpg,Images/MSR-VTT-videoTestVideo_video9044-shot0_0/img56.jpg,652,17,0,2022-06-15_12h49.42.691,annotation,2021.2.3,Win32,69.31447979,,
,,,,,,,,,,,,,,,,,0.478888889,-0.117777778,1,0,0,image_9,0,57,57,45,1,1219,A person standing next to a dog in a car.,M,0,9,MSR-VTT-videoTestVideo_video8831-shot14_0,Images/MSR-VTT-videoTestVideo_video8831-shot14_0/img0.jpg,Images/MSR-VTT-videoTestVideo_video8831-shot14_0/img5.jpg,Images/MSR-VTT-videoTestVideo_video8831-shot14_0/img11.jpg,Images/MSR-VTT-videoTestVideo_video8831-shot14_0/img17.jpg,Images/MSR-VTT-videoTestVideo_video8831-shot14_0/img24.jpg,Images/MSR-VTT-videoTestVideo_video8831-shot14_0/img25.jpg,Images/MSR-VTT-videoTestVideo_video8831-shot14_0/img26.jpg,Images/MSR-VTT-videoTestVideo_video8831-shot14_0/img28.jpg,Images/MSR-VTT-videoTestVideo_video8831-shot14_0/img29.jpg,Images/MSR-VTT-videoTestVideo_video8831-shot14_0/img30.jpg,870,17,0,2022-06-15_12h49.42.691,annotation,2021.2.3,Win32,69.31447979,,
,,,,,,,,,,,,,,,,,0.051111111,-0.171111111,1,0,0,image_7,0,58,58,7,1,1852,A group of people standing in front of a building.,M,0,4,MSR-VTT-videoTestVideo_video8306-shot1_0,Images/MSR-VTT-videoTestVideo_video8306-shot1_0/img0.jpg,Images/MSR-VTT-videoTestVideo_video8306-shot1_0/img2.jpg,Images/MSR-VTT-videoTestVideo_video8306-shot1_0/img6.jpg,Images/MSR-VTT-videoTestVideo_video8306-shot1_0/img15.jpg,Images/MSR-VTT-videoTestVideo_video8306-shot1_0/img22.jpg,Images/MSR-VTT-videoTestVideo_video8306-shot1_0/img39.jpg,Images/MSR-VTT-videoTestVideo_video8306-shot1_0/img54.jpg,Images/MSR-VTT-videoTestVideo_video8306-shot1_0/img68.jpg,Images/MSR-VTT-videoTestVideo_video8306-shot1_0/img86.jpg,Images/MSR-VTT-videoTestVideo_video8306-shot1_0/img94.jpg,1055,17,0,2022-06-15_12h49.42.691,annotation,2021.2.3,Win32,69.31447979,,
,,,,,,,,,,,,,,,,,0.501111111,-0.141111111,1,0,0,image_9,0,59,59,17,1,562,There is a white circle just above the light in the lower right corner.,H,0,1,MSR-VTT-videoTestVideo_video8588-shot0_1,Images/MSR-VTT-videoTestVideo_video8588-shot0_1/img77.jpg,Images/MSR-VTT-videoTestVideo_video8588-shot0_1/img93.jpg,Images/MSR-VTT-videoTestVideo_video8588-shot0_1/img107.jpg,Images/MSR-VTT-videoTestVideo_video8588-shot0_1/img128.jpg,Images/MSR-VTT-videoTestVideo_video8588-shot0_1/img150.jpg,Images/MSR-VTT-videoTestVideo_video8588-shot0_1/img159.jpg,Images/MSR-VTT-videoTestVideo_video8588-shot0_1/img164.jpg,Images/MSR-VTT-videoTestVideo_video8588-shot0_1/img169.jpg,Images/MSR-VTT-videoTestVideo_video8588-shot0_1/img179.jpg,Images/MSR-VTT-videoTestVideo_video8588-shot0_1/img189.jpg,360,17,0,2022-06-15_12h49.42.691,annotation,2021.2.3,Win32,69.31447979,,
,,,,,,,,,,,,,,,,,-0.467777778,-0.12,1,0,0,image_5,0,60,60,24,1,1200,A woman standing next to a group of people.,M,0,7,video-storytelling-videocamping_1OzbiB1TIWI-shot7_10,Images/video-storytelling-videocamping_1OzbiB1TIWI-shot7_10/img646.jpg,Images/video-storytelling-videocamping_1OzbiB1TIWI-shot7_10/img654.jpg,Images/video-storytelling-videocamping_1OzbiB1TIWI-shot7_10/img656.jpg,Images/video-storytelling-videocamping_1OzbiB1TIWI-shot7_10/img661.jpg,Images/video-storytelling-videocamping_1OzbiB1TIWI-shot7_10/img675.jpg,Images/video-storytelling-videocamping_1OzbiB1TIWI-shot7_10/img681.jpg,Images/video-storytelling-videocamping_1OzbiB1TIWI-shot7_10/img682.jpg,Images/video-storytelling-videocamping_1OzbiB1TIWI-shot7_10/img683.jpg,Images/video-storytelling-videocamping_1OzbiB1TIWI-shot7_10/img685.jpg,Images/video-storytelling-videocamping_1OzbiB1TIWI-shot7_10/img688.jpg,1149,17,0,2022-06-15_12h49.42.691,annotation,2021.2.3,Win32,69.31447979,,
,,,,,,,,,,,,,,,,,0.532222222,0.142222222,1,0,0,image_4,0,61,61,28,1,1435,A woman is standing in a room with a pair of shorts on.,M,0,5,MSR-VTT-videoTestVideo_video9044-shot0_0,Images/MSR-VTT-videoTestVideo_video9044-shot0_0/img0.jpg,Images/MSR-VTT-videoTestVideo_video9044-shot0_0/img4.jpg,Images/MSR-VTT-videoTestVideo_video9044-shot0_0/img10.jpg,Images/MSR-VTT-videoTestVideo_video9044-shot0_0/img13.jpg,Images/MSR-VTT-videoTestVideo_video9044-shot0_0/img25.jpg,Images/MSR-VTT-videoTestVideo_video9044-shot0_0/img31.jpg,Images/MSR-VTT-videoTestVideo_video9044-shot0_0/img39.jpg,Images/MSR-VTT-videoTestVideo_video9044-shot0_0/img43.jpg,Images/MSR-VTT-videoTestVideo_video9044-shot0_0/img46.jpg,Images/MSR-VTT-videoTestVideo_video9044-shot0_0/img56.jpg,848,17,0,2022-06-15_12h49.42.691,annotation,2021.2.3,Win32,69.31447979,,
,,,,,,,,,,,,,,,,,0.191111111,-0.152222222,1,0,0,image_8,0,62,62,32,1,1792,A refrigerator with lots of different types of food.,M,1,7,MSR-VTT-videoTestVideo_video8129-shot1_6,Images/MSR-VTT-videoTestVideo_video8129-shot1_6/img645.jpg,Images/MSR-VTT-videoTestVideo_video8129-shot1_6/img648.jpg,Images/MSR-VTT-videoTestVideo_video8129-shot1_6/img650.jpg,Images/MSR-VTT-videoTestVideo_video8129-shot1_6/img657.jpg,Images/MSR-VTT-videoTestVideo_video8129-shot1_6/img660.jpg,Images/MSR-VTT-videoTestVideo_video8129-shot1_6/img681.jpg,Images/MSR-VTT-videoTestVideo_video8129-shot1_6/img723.jpg,Images/MSR-VTT-videoTestVideo_video8129-shot1_6/img750.jpg,Images/MSR-VTT-videoTestVideo_video8129-shot1_6/img767.jpg,Images/MSR-VTT-videoTestVideo_video8129-shot1_6/img787.jpg,1215,17,0,2022-06-15_12h49.42.691,annotation,2021.2.3,Win32,69.31447979,,
,,,,,,,,,,,,,,,,,,,,,,,,,,,,,,,,,,,,,,,,,,,,,,,2022-06-15_12h49.42.691,annotation,2021.2.3,Win32,69.31447979,space,111.9997
