mturk,key_resp_2.keys,key_resp_2.rt,key_resp_3.keys,key_resp_3.rt,mouse_2.x,mouse_2.y,mouse_2.leftButton,mouse_2.midButton,mouse_2.rightButton,mouse_2.clicked_name,key_resp_5.keys,key_resp_5.rt,key_resp.keys,key_resp.rt,key_resp_6.keys,key_resp_6.rt,mouse.x,mouse.y,mouse.leftButton,mouse.midButton,mouse.rightButton,mouse.clicked_name,trials.thisRepN,trials.thisTrialN,trials.thisN,trials.thisIndex,trials.ran,N,caption,class_caption,model_guessed,target_idx,image_set,img1,img2,img3,img4,img5,img6,img7,img8,img9,img10,Q_id,block,is_check,date,expName,psychopyVersion,OS,frameRate,key_resp_7.keys,key_resp_7.rt
1668984,space,19.7602,space,7.3817,0.23046875,0.127604167,1,0,0,ex4,space,7.904,space,16.8319,space,2.2669,-0.204427083,-0.1875,1,0,0,image_6,0,0,0,57,1,1262,A person flying a kite in the water.,M,0,5,MSR-VTT-videoTestVideo_video8006-shot1_1,Images/MSR-VTT-videoTestVideo_video8006-shot1_1/img71.jpg,Images/MSR-VTT-videoTestVideo_video8006-shot1_1/img77.jpg,Images/MSR-VTT-videoTestVideo_video8006-shot1_1/img86.jpg,Images/MSR-VTT-videoTestVideo_video8006-shot1_1/img196.jpg,Images/MSR-VTT-videoTestVideo_video8006-shot1_1/img236.jpg,Images/MSR-VTT-videoTestVideo_video8006-shot1_1/img250.jpg,Images/MSR-VTT-videoTestVideo_video8006-shot1_1/img261.jpg,Images/MSR-VTT-videoTestVideo_video8006-shot1_1/img282.jpg,Images/MSR-VTT-videoTestVideo_video8006-shot1_1/img314.jpg,Images/MSR-VTT-videoTestVideo_video8006-shot1_1/img326.jpg,1606,4,0,2022-06-15_12h15.04.576,annotation,2021.2.3,Win32,69.86167389,,
,,,,,,,,,,,,,,,,,0.03125,0.09765625,1,0,0,image_2,0,1,1,52,1,222,The man hasn't taken a sip and you can just see the very top of the water bottle.,H,0,1,video-storytelling-videocamping_EytINruY3-U-shot43_1,Images/video-storytelling-videocamping_EytINruY3-U-shot43_1/img109.jpg,Images/video-storytelling-videocamping_EytINruY3-U-shot43_1/img119.jpg,Images/video-storytelling-videocamping_EytINruY3-U-shot43_1/img132.jpg,Images/video-storytelling-videocamping_EytINruY3-U-shot43_1/img169.jpg,Images/video-storytelling-videocamping_EytINruY3-U-shot43_1/img250.jpg,Images/video-storytelling-videocamping_EytINruY3-U-shot43_1/img301.jpg,Images/video-storytelling-videocamping_EytINruY3-U-shot43_1/img309.jpg,Images/video-storytelling-videocamping_EytINruY3-U-shot43_1/img312.jpg,Images/video-storytelling-videocamping_EytINruY3-U-shot43_1/img314.jpg,Images/video-storytelling-videocamping_EytINruY3-U-shot43_1/img326.jpg,761,4,0,2022-06-15_12h15.04.576,annotation,2021.2.3,Win32,69.86167389,,
,,,,,,,,,,,,,,,,,0.01953125,-0.1640625,1,0,0,image_7,0,2,2,50,1,618,The alpaca nose is pointing straight up and located just under the highest leaf without touching it.  The alpaca mouth is closed.,H,0,5,MSR-VTT-videoTestVideo_video7295-shot1_4,Images/MSR-VTT-videoTestVideo_video7295-shot1_4/img60.jpg,Images/MSR-VTT-videoTestVideo_video7295-shot1_4/img62.jpg,Images/MSR-VTT-videoTestVideo_video7295-shot1_4/img63.jpg,Images/MSR-VTT-videoTestVideo_video7295-shot1_4/img65.jpg,Images/MSR-VTT-videoTestVideo_video7295-shot1_4/img67.jpg,Images/MSR-VTT-videoTestVideo_video7295-shot1_4/img68.jpg,Images/MSR-VTT-videoTestVideo_video7295-shot1_4/img69.jpg,Images/MSR-VTT-videoTestVideo_video7295-shot1_4/img70.jpg,Images/MSR-VTT-videoTestVideo_video7295-shot1_4/img71.jpg,Images/MSR-VTT-videoTestVideo_video7295-shot1_4/img72.jpg,1447,4,0,2022-06-15_12h15.04.576,annotation,2021.2.3,Win32,69.86167389,,
,,,,,,,,,,,,,,,,,0.040364583,0.123697917,1,0,0,image_2,0,3,3,61,1,3,A grey elephant with golden leaves on it. ,H,,2,open-images-1745_0ed62fe71809b2f5,Checks/check4/open-images-2609_3f72daeb23764ecfimg6.jpg,Checks/check4/open-images-1928_60679e2899870e08img1.jpg,Checks/check4/open-images-1745_0ed62fe71809b2f5img2.jpg,Checks/check4/open-images-1811_9ae6351c7f7565edimg0.jpg,Checks/check4/open-images-1721_6f04da11945ea492img3.jpg,Checks/check4/open-images-1907_5f9be3e4ea5e22c7img2.jpg,Checks/check4/open-images-580_0ddffb9c25141999img1.jpg,Checks/check4/open-images-2924_0645dcbcf998fed9img3.jpg,Checks/check4/open-images-869_856ecbcb5faf76e3img8.jpg,Checks/check4/open-images-250_02039517e63a91fbimg1.jpg,,,1,2022-06-15_12h15.04.576,annotation,2021.2.3,Win32,69.86167389,,
,,,,,,,,,,,,,,,,,0.4609375,-0.165364583,1,0,0,image_9,0,4,4,12,1,1885,A person standing in front of a door.,M,0,7,MSR-VTT-videoTestVideo_video9875-shot6_0,Images/MSR-VTT-videoTestVideo_video9875-shot6_0/img0.jpg,Images/MSR-VTT-videoTestVideo_video9875-shot6_0/img4.jpg,Images/MSR-VTT-videoTestVideo_video9875-shot6_0/img9.jpg,Images/MSR-VTT-videoTestVideo_video9875-shot6_0/img11.jpg,Images/MSR-VTT-videoTestVideo_video9875-shot6_0/img16.jpg,Images/MSR-VTT-videoTestVideo_video9875-shot6_0/img26.jpg,Images/MSR-VTT-videoTestVideo_video9875-shot6_0/img32.jpg,Images/MSR-VTT-videoTestVideo_video9875-shot6_0/img40.jpg,Images/MSR-VTT-videoTestVideo_video9875-shot6_0/img44.jpg,Images/MSR-VTT-videoTestVideo_video9875-shot6_0/img57.jpg,448,4,0,2022-06-15_12h15.04.576,annotation,2021.2.3,Win32,69.86167389,,
,,,,,,,,,,,,,,,,,0.513020833,-0.180989583,1,0,0,image_9,0,5,5,23,1,1186,A man standing in front of a wall.,M,0,3,MSR-VTT-videoTestVideo_video8721-shot1_0,Images/MSR-VTT-videoTestVideo_video8721-shot1_0/img0.jpg,Images/MSR-VTT-videoTestVideo_video8721-shot1_0/img11.jpg,Images/MSR-VTT-videoTestVideo_video8721-shot1_0/img46.jpg,Images/MSR-VTT-videoTestVideo_video8721-shot1_0/img56.jpg,Images/MSR-VTT-videoTestVideo_video8721-shot1_0/img69.jpg,Images/MSR-VTT-videoTestVideo_video8721-shot1_0/img81.jpg,Images/MSR-VTT-videoTestVideo_video8721-shot1_0/img94.jpg,Images/MSR-VTT-videoTestVideo_video8721-shot1_0/img121.jpg,Images/MSR-VTT-videoTestVideo_video8721-shot1_0/img131.jpg,Images/MSR-VTT-videoTestVideo_video8721-shot1_0/img184.jpg,454,4,0,2022-06-15_12h15.04.576,annotation,2021.2.3,Win32,69.86167389,,
,,,,,,,,,,,,,,,,,-0.463541667,0.09375,1,0,0,image_0,0,6,6,56,1,211,You can't see the handle of the wooden spoon at all and the spoon is covering the entire upper left hand part of the picture. ,H,0,6,MSR-VTT-videoTestVideo_video8191-shot4_0,Images/MSR-VTT-videoTestVideo_video8191-shot4_0/img0.jpg,Images/MSR-VTT-videoTestVideo_video8191-shot4_0/img7.jpg,Images/MSR-VTT-videoTestVideo_video8191-shot4_0/img8.jpg,Images/MSR-VTT-videoTestVideo_video8191-shot4_0/img14.jpg,Images/MSR-VTT-videoTestVideo_video8191-shot4_0/img16.jpg,Images/MSR-VTT-videoTestVideo_video8191-shot4_0/img17.jpg,Images/MSR-VTT-videoTestVideo_video8191-shot4_0/img18.jpg,Images/MSR-VTT-videoTestVideo_video8191-shot4_0/img19.jpg,Images/MSR-VTT-videoTestVideo_video8191-shot4_0/img21.jpg,Images/MSR-VTT-videoTestVideo_video8191-shot4_0/img23.jpg,506,4,0,2022-06-15_12h15.04.576,annotation,2021.2.3,Win32,69.86167389,,
,,,,,,,,,,,,,,,,,-0.567708333,0.102864583,1,0,0,image_0,0,7,7,9,1,1649,A man standing in front of a white couch.,M,0,4,MSR-VTT-videoTestVideo_video8970-shot1_0,Images/MSR-VTT-videoTestVideo_video8970-shot1_0/img0.jpg,Images/MSR-VTT-videoTestVideo_video8970-shot1_0/img3.jpg,Images/MSR-VTT-videoTestVideo_video8970-shot1_0/img8.jpg,Images/MSR-VTT-videoTestVideo_video8970-shot1_0/img15.jpg,Images/MSR-VTT-videoTestVideo_video8970-shot1_0/img24.jpg,Images/MSR-VTT-videoTestVideo_video8970-shot1_0/img50.jpg,Images/MSR-VTT-videoTestVideo_video8970-shot1_0/img67.jpg,Images/MSR-VTT-videoTestVideo_video8970-shot1_0/img94.jpg,Images/MSR-VTT-videoTestVideo_video8970-shot1_0/img114.jpg,Images/MSR-VTT-videoTestVideo_video8970-shot1_0/img125.jpg,890,4,0,2022-06-15_12h15.04.576,annotation,2021.2.3,Win32,69.86167389,,
,,,,,,,,,,,,,,,,,0.216145833,-0.131510417,1,0,0,image_8,0,8,8,29,1,1961,a close up of a woman with a cell phone in her hair.,M,0,9,MSR-VTT-videoTestVideo_video9412-shot1_0,Images/MSR-VTT-videoTestVideo_video9412-shot1_0/img0.jpg,Images/MSR-VTT-videoTestVideo_video9412-shot1_0/img18.jpg,Images/MSR-VTT-videoTestVideo_video9412-shot1_0/img72.jpg,Images/MSR-VTT-videoTestVideo_video9412-shot1_0/img86.jpg,Images/MSR-VTT-videoTestVideo_video9412-shot1_0/img93.jpg,Images/MSR-VTT-videoTestVideo_video9412-shot1_0/img95.jpg,Images/MSR-VTT-videoTestVideo_video9412-shot1_0/img98.jpg,Images/MSR-VTT-videoTestVideo_video9412-shot1_0/img99.jpg,Images/MSR-VTT-videoTestVideo_video9412-shot1_0/img118.jpg,Images/MSR-VTT-videoTestVideo_video9412-shot1_0/img130.jpg,1300,4,0,2022-06-15_12h15.04.576,annotation,2021.2.3,Win32,69.86167389,,
,,,,,,,,,,,,,,,,,-0.22265625,0.119791667,1,0,0,image_1,0,9,9,39,1,1612,A man in a suit standing in front of a microphone.,M,0,6,MSR-VTT-videoTestVideo_video9203-shot1_0,Images/MSR-VTT-videoTestVideo_video9203-shot1_0/img0.jpg,Images/MSR-VTT-videoTestVideo_video9203-shot1_0/img6.jpg,Images/MSR-VTT-videoTestVideo_video9203-shot1_0/img38.jpg,Images/MSR-VTT-videoTestVideo_video9203-shot1_0/img86.jpg,Images/MSR-VTT-videoTestVideo_video9203-shot1_0/img100.jpg,Images/MSR-VTT-videoTestVideo_video9203-shot1_0/img149.jpg,Images/MSR-VTT-videoTestVideo_video9203-shot1_0/img187.jpg,Images/MSR-VTT-videoTestVideo_video9203-shot1_0/img201.jpg,Images/MSR-VTT-videoTestVideo_video9203-shot1_0/img250.jpg,Images/MSR-VTT-videoTestVideo_video9203-shot1_0/img311.jpg,1353,4,0,2022-06-15_12h15.04.576,annotation,2021.2.3,Win32,69.86167389,,
,,,,,,,,,,,,,,,,,0.001302083,0.165364583,1,0,0,image_2,0,10,10,58,1,0,Pair of black gloves,H,,2,open-images-510_3a241cb30d6e5319,Checks/check1/open-images-225_1442c0d0ef23d58bimg3.jpg,Checks/check1/open-images-2759_3a42708fe77398b7img8.jpg,Checks/check1/open-images-510_3a241cb30d6e5319img2.jpg,Checks/check1/open-images-2209_02c98146fb93ff17img1.jpg,Checks/check1/open-images-1553_0f128317e56a9d2fimg9.jpg,Checks/check1/open-images-2666_044d7c6d11e6b493img8.jpg,Checks/check1/open-images-2880_159294646083f545img4.jpg,Checks/check1/open-images-609_2dc0baa993a2bd25img5.jpg,Checks/check1/open-images-1854_2b15616b4f1080e7img2.jpg,Checks/check1/open-images-1435_1b0ce31951048765img8.jpg,,,1,2022-06-15_12h15.04.576,annotation,2021.2.3,Win32,69.86167389,,
,,,,,,,,,,,,,,,,,-0.21484375,0.1328125,1,0,0,image_1,0,11,11,62,1,4,A penguin holding a piece of paper with text on it. ,H,,1,open-images-2521_074d6af730ed17a6,Checks/check5/open-images-509_4d8bd994cb8c6eaeimg0.jpg,Checks/check5/open-images-2521_074d6af730ed17a6img1.jpg,Checks/check5/open-images-1365_a00a5fde334ae45aimg4.jpg,Checks/check5/open-images-1602_44092afdeab39e73img6.jpg,Checks/check5/open-images-1032_059f3cdfb85ee0ceimg3.jpg,Checks/check5/open-images-727_25b77fff36adba66img2.jpg,Checks/check5/open-images-2208_0fb92b9978d98575img2.jpg,Checks/check5/open-images-1305_05769e6abb16fdc8img9.jpg,Checks/check5/open-images-2676_052dbf7b4899430bimg1.jpg,Checks/check5/open-images-2569_1e81d79bb796a2dbimg7.jpg,,,1,2022-06-15_12h15.04.576,annotation,2021.2.3,Win32,69.86167389,,
,,,,,,,,,,,,,,,,,-0.46875,0.098958333,1,0,0,image_0,0,12,12,43,1,77,The hands of the man in white are not visible.,H,0,0,MSR-VTT-videoTestVideo_video8403-shot1_1,Images/MSR-VTT-videoTestVideo_video8403-shot1_1/img36.jpg,Images/MSR-VTT-videoTestVideo_video8403-shot1_1/img39.jpg,Images/MSR-VTT-videoTestVideo_video8403-shot1_1/img44.jpg,Images/MSR-VTT-videoTestVideo_video8403-shot1_1/img49.jpg,Images/MSR-VTT-videoTestVideo_video8403-shot1_1/img51.jpg,Images/MSR-VTT-videoTestVideo_video8403-shot1_1/img53.jpg,Images/MSR-VTT-videoTestVideo_video8403-shot1_1/img56.jpg,Images/MSR-VTT-videoTestVideo_video8403-shot1_1/img57.jpg,Images/MSR-VTT-videoTestVideo_video8403-shot1_1/img62.jpg,Images/MSR-VTT-videoTestVideo_video8403-shot1_1/img63.jpg,977,4,0,2022-06-15_12h15.04.576,annotation,2021.2.3,Win32,69.86167389,,
,,,,,,,,,,,,,,,,,0.283854167,-0.170572917,1,0,0,image_8,0,13,13,5,1,1795,A group of colorful vases sitting on a sidewalk.,M,0,4,MSR-VTT-videoTestVideo_video8408-shot1_0,Images/MSR-VTT-videoTestVideo_video8408-shot1_0/img0.jpg,Images/MSR-VTT-videoTestVideo_video8408-shot1_0/img6.jpg,Images/MSR-VTT-videoTestVideo_video8408-shot1_0/img17.jpg,Images/MSR-VTT-videoTestVideo_video8408-shot1_0/img32.jpg,Images/MSR-VTT-videoTestVideo_video8408-shot1_0/img55.jpg,Images/MSR-VTT-videoTestVideo_video8408-shot1_0/img69.jpg,Images/MSR-VTT-videoTestVideo_video8408-shot1_0/img76.jpg,Images/MSR-VTT-videoTestVideo_video8408-shot1_0/img78.jpg,Images/MSR-VTT-videoTestVideo_video8408-shot1_0/img79.jpg,Images/MSR-VTT-videoTestVideo_video8408-shot1_0/img80.jpg,1120,4,0,2022-06-15_12h15.04.576,annotation,2021.2.3,Win32,69.86167389,,
,,,,,,,,,,,,,,,,,0.5703125,-0.14453125,1,0,0,image_9,0,14,14,48,1,1360,A couple of horses standing next to each other.,M,0,0,MSR-VTT-videoTestVideo_video8242-shot2_1,Images/MSR-VTT-videoTestVideo_video8242-shot2_1/img53.jpg,Images/MSR-VTT-videoTestVideo_video8242-shot2_1/img56.jpg,Images/MSR-VTT-videoTestVideo_video8242-shot2_1/img58.jpg,Images/MSR-VTT-videoTestVideo_video8242-shot2_1/img59.jpg,Images/MSR-VTT-videoTestVideo_video8242-shot2_1/img61.jpg,Images/MSR-VTT-videoTestVideo_video8242-shot2_1/img62.jpg,Images/MSR-VTT-videoTestVideo_video8242-shot2_1/img63.jpg,Images/MSR-VTT-videoTestVideo_video8242-shot2_1/img65.jpg,Images/MSR-VTT-videoTestVideo_video8242-shot2_1/img67.jpg,Images/MSR-VTT-videoTestVideo_video8242-shot2_1/img68.jpg,1765,4,0,2022-06-15_12h15.04.576,annotation,2021.2.3,Win32,69.86167389,,
,,,,,,,,,,,,,,,,,0.485677083,0.138020833,1,0,0,image_4,0,15,15,8,1,310,"The woman on the left is very, very blurry. Her veil is just barely touching the top of the image",H,0,4,video-storytelling-videowedding_46xhFCXBMJs-shot88_0,Images/video-storytelling-videowedding_46xhFCXBMJs-shot88_0/img0.jpg,Images/video-storytelling-videowedding_46xhFCXBMJs-shot88_0/img4.jpg,Images/video-storytelling-videowedding_46xhFCXBMJs-shot88_0/img6.jpg,Images/video-storytelling-videowedding_46xhFCXBMJs-shot88_0/img8.jpg,Images/video-storytelling-videowedding_46xhFCXBMJs-shot88_0/img10.jpg,Images/video-storytelling-videowedding_46xhFCXBMJs-shot88_0/img13.jpg,Images/video-storytelling-videowedding_46xhFCXBMJs-shot88_0/img19.jpg,Images/video-storytelling-videowedding_46xhFCXBMJs-shot88_0/img20.jpg,Images/video-storytelling-videowedding_46xhFCXBMJs-shot88_0/img24.jpg,Images/video-storytelling-videowedding_46xhFCXBMJs-shot88_0/img26.jpg,1581,4,0,2022-06-15_12h15.04.576,annotation,2021.2.3,Win32,69.86167389,,
,,,,,,,,,,,,,,,,,0.42578125,-0.147135417,1,0,0,image_9,0,16,16,18,1,593,"Both hands can be seen on woman's head, man is facing to the left with mouth puckered",H,0,8,MSR-VTT-videoTestVideo_video7844-shot4_0,Images/MSR-VTT-videoTestVideo_video7844-shot4_0/img0.jpg,Images/MSR-VTT-videoTestVideo_video7844-shot4_0/img6.jpg,Images/MSR-VTT-videoTestVideo_video7844-shot4_0/img13.jpg,Images/MSR-VTT-videoTestVideo_video7844-shot4_0/img16.jpg,Images/MSR-VTT-videoTestVideo_video7844-shot4_0/img21.jpg,Images/MSR-VTT-videoTestVideo_video7844-shot4_0/img23.jpg,Images/MSR-VTT-videoTestVideo_video7844-shot4_0/img26.jpg,Images/MSR-VTT-videoTestVideo_video7844-shot4_0/img30.jpg,Images/MSR-VTT-videoTestVideo_video7844-shot4_0/img33.jpg,Images/MSR-VTT-videoTestVideo_video7844-shot4_0/img38.jpg,243,4,0,2022-06-15_12h15.04.576,annotation,2021.2.3,Win32,69.86167389,,
,,,,,,,,,,,,,,,,,0.506510417,-0.141927083,1,0,0,image_9,0,17,17,11,1,1980,A close up of a person sitting on a chair.,M,0,3,MSR-VTT-videoTestVideo_video9135-shot0_0,Images/MSR-VTT-videoTestVideo_video9135-shot0_0/img0.jpg,Images/MSR-VTT-videoTestVideo_video9135-shot0_0/img10.jpg,Images/MSR-VTT-videoTestVideo_video9135-shot0_0/img23.jpg,Images/MSR-VTT-videoTestVideo_video9135-shot0_0/img55.jpg,Images/MSR-VTT-videoTestVideo_video9135-shot0_0/img66.jpg,Images/MSR-VTT-videoTestVideo_video9135-shot0_0/img72.jpg,Images/MSR-VTT-videoTestVideo_video9135-shot0_0/img128.jpg,Images/MSR-VTT-videoTestVideo_video9135-shot0_0/img166.jpg,Images/MSR-VTT-videoTestVideo_video9135-shot0_0/img171.jpg,Images/MSR-VTT-videoTestVideo_video9135-shot0_0/img173.jpg,1611,4,0,2022-06-15_12h15.04.576,annotation,2021.2.3,Win32,69.86167389,,
,,,,,,,,,,,,,,,,,0.290364583,-0.109375,1,0,0,image_8,0,18,18,45,1,833,"Only one arm and hand are visible, it's reaching all the way across the picture. The food on the plate is almost entirely visible, only the very top is covered by the arm.",H,0,9,YouCook-video0082-shot3_0,Images/YouCook-video0082-shot3_0/img0.jpg,Images/YouCook-video0082-shot3_0/img16.jpg,Images/YouCook-video0082-shot3_0/img21.jpg,Images/YouCook-video0082-shot3_0/img39.jpg,Images/YouCook-video0082-shot3_0/img61.jpg,Images/YouCook-video0082-shot3_0/img67.jpg,Images/YouCook-video0082-shot3_0/img80.jpg,Images/YouCook-video0082-shot3_0/img86.jpg,Images/YouCook-video0082-shot3_0/img90.jpg,Images/YouCook-video0082-shot3_0/img115.jpg,816,4,0,2022-06-15_12h15.04.576,annotation,2021.2.3,Win32,69.86167389,,
,,,,,,,,,,,,,,,,,-0.256510417,0.1171875,1,0,0,image_1,0,19,19,26,1,265,The person's thumbnail is facing towards the camera in this closeup picture of a paper plate with a bagel on it,H,0,3,video-storytelling-videocamping_dBXYM3dQTSo-shot69_5,Images/video-storytelling-videocamping_dBXYM3dQTSo-shot69_5/img256.jpg,Images/video-storytelling-videocamping_dBXYM3dQTSo-shot69_5/img262.jpg,Images/video-storytelling-videocamping_dBXYM3dQTSo-shot69_5/img265.jpg,Images/video-storytelling-videocamping_dBXYM3dQTSo-shot69_5/img269.jpg,Images/video-storytelling-videocamping_dBXYM3dQTSo-shot69_5/img272.jpg,Images/video-storytelling-videocamping_dBXYM3dQTSo-shot69_5/img274.jpg,Images/video-storytelling-videocamping_dBXYM3dQTSo-shot69_5/img278.jpg,Images/video-storytelling-videocamping_dBXYM3dQTSo-shot69_5/img279.jpg,Images/video-storytelling-videocamping_dBXYM3dQTSo-shot69_5/img280.jpg,Images/video-storytelling-videocamping_dBXYM3dQTSo-shot69_5/img282.jpg,1464,4,0,2022-06-15_12h15.04.576,annotation,2021.2.3,Win32,69.86167389,,
,,,,,,,,,,,,,,,,,0.467447917,-0.18359375,1,0,0,image_9,0,20,20,44,1,1722,A group of people standing next to each other.,M,1,8,MSR-VTT-videoTestVideo_video9235-shot2_0,Images/MSR-VTT-videoTestVideo_video9235-shot2_0/img2.jpg,Images/MSR-VTT-videoTestVideo_video9235-shot2_0/img4.jpg,Images/MSR-VTT-videoTestVideo_video9235-shot2_0/img8.jpg,Images/MSR-VTT-videoTestVideo_video9235-shot2_0/img22.jpg,Images/MSR-VTT-videoTestVideo_video9235-shot2_0/img25.jpg,Images/MSR-VTT-videoTestVideo_video9235-shot2_0/img26.jpg,Images/MSR-VTT-videoTestVideo_video9235-shot2_0/img33.jpg,Images/MSR-VTT-videoTestVideo_video9235-shot2_0/img39.jpg,Images/MSR-VTT-videoTestVideo_video9235-shot2_0/img45.jpg,Images/MSR-VTT-videoTestVideo_video9235-shot2_0/img52.jpg,1811,4,0,2022-06-15_12h15.04.576,annotation,2021.2.3,Win32,69.86167389,,
,,,,,,,,,,,,,,,,,0.4921875,-0.1171875,1,0,0,image_9,0,21,21,38,1,1365,A man standing next to a body of water.,M,1,5,video-storytelling-videocamping_dBXYM3dQTSo-shot51_1,Images/video-storytelling-videocamping_dBXYM3dQTSo-shot51_1/img140.jpg,Images/video-storytelling-videocamping_dBXYM3dQTSo-shot51_1/img143.jpg,Images/video-storytelling-videocamping_dBXYM3dQTSo-shot51_1/img145.jpg,Images/video-storytelling-videocamping_dBXYM3dQTSo-shot51_1/img148.jpg,Images/video-storytelling-videocamping_dBXYM3dQTSo-shot51_1/img160.jpg,Images/video-storytelling-videocamping_dBXYM3dQTSo-shot51_1/img164.jpg,Images/video-storytelling-videocamping_dBXYM3dQTSo-shot51_1/img171.jpg,Images/video-storytelling-videocamping_dBXYM3dQTSo-shot51_1/img175.jpg,Images/video-storytelling-videocamping_dBXYM3dQTSo-shot51_1/img181.jpg,Images/video-storytelling-videocamping_dBXYM3dQTSo-shot51_1/img197.jpg,1344,4,0,2022-06-15_12h15.04.576,annotation,2021.2.3,Win32,69.86167389,,
,,,,,,,,,,,,,,,,,-0.537760417,0.083333333,1,0,0,image_0,0,22,22,6,1,1182,A person jumping into the air to catch a ball.,M,1,2,MSR-VTT-videoTestVideo_video8465-shot1_2,Images/MSR-VTT-videoTestVideo_video8465-shot1_2/img98.jpg,Images/MSR-VTT-videoTestVideo_video8465-shot1_2/img102.jpg,Images/MSR-VTT-videoTestVideo_video8465-shot1_2/img108.jpg,Images/MSR-VTT-videoTestVideo_video8465-shot1_2/img119.jpg,Images/MSR-VTT-videoTestVideo_video8465-shot1_2/img125.jpg,Images/MSR-VTT-videoTestVideo_video8465-shot1_2/img159.jpg,Images/MSR-VTT-videoTestVideo_video8465-shot1_2/img168.jpg,Images/MSR-VTT-videoTestVideo_video8465-shot1_2/img179.jpg,Images/MSR-VTT-videoTestVideo_video8465-shot1_2/img188.jpg,Images/MSR-VTT-videoTestVideo_video8465-shot1_2/img197.jpg,251,4,0,2022-06-15_12h15.04.576,annotation,2021.2.3,Win32,69.86167389,,
,,,,,,,,,,,,,,,,,0.526041667,0.119791667,1,0,0,image_4,0,23,23,54,1,1669,A plate full of food on a table.,M,0,1,MSR-VTT-videoTestVideo_video9983-shot1_0,Images/MSR-VTT-videoTestVideo_video9983-shot1_0/img0.jpg,Images/MSR-VTT-videoTestVideo_video9983-shot1_0/img363.jpg,Images/MSR-VTT-videoTestVideo_video9983-shot1_0/img465.jpg,Images/MSR-VTT-videoTestVideo_video9983-shot1_0/img466.jpg,Images/MSR-VTT-videoTestVideo_video9983-shot1_0/img467.jpg,Images/MSR-VTT-videoTestVideo_video9983-shot1_0/img469.jpg,Images/MSR-VTT-videoTestVideo_video9983-shot1_0/img489.jpg,Images/MSR-VTT-videoTestVideo_video9983-shot1_0/img494.jpg,Images/MSR-VTT-videoTestVideo_video9983-shot1_0/img527.jpg,Images/MSR-VTT-videoTestVideo_video9983-shot1_0/img579.jpg,189,4,0,2022-06-15_12h15.04.576,annotation,2021.2.3,Win32,69.86167389,,
,,,,,,,,,,,,,,,,,0.481770833,-0.162760417,1,0,0,image_9,0,24,24,34,1,1414,A group of kids playing frisbee in a park.,M,0,8,MSR-VTT-videoTestVideo_video7625-shot6_0,Images/MSR-VTT-videoTestVideo_video7625-shot6_0/img1.jpg,Images/MSR-VTT-videoTestVideo_video7625-shot6_0/img4.jpg,Images/MSR-VTT-videoTestVideo_video7625-shot6_0/img5.jpg,Images/MSR-VTT-videoTestVideo_video7625-shot6_0/img10.jpg,Images/MSR-VTT-videoTestVideo_video7625-shot6_0/img12.jpg,Images/MSR-VTT-videoTestVideo_video7625-shot6_0/img13.jpg,Images/MSR-VTT-videoTestVideo_video7625-shot6_0/img15.jpg,Images/MSR-VTT-videoTestVideo_video7625-shot6_0/img17.jpg,Images/MSR-VTT-videoTestVideo_video7625-shot6_0/img20.jpg,Images/MSR-VTT-videoTestVideo_video7625-shot6_0/img23.jpg,996,4,0,2022-06-15_12h15.04.576,annotation,2021.2.3,Win32,69.86167389,,
,,,,,,,,,,,,,,,,,-0.19921875,0.123697917,1,0,0,image_1,0,25,25,17,1,1981,A person holding a metal pot on top of a counter.,M,0,3,MSR-VTT-videoTestVideo_video9693-shot2_0,Images/MSR-VTT-videoTestVideo_video9693-shot2_0/img0.jpg,Images/MSR-VTT-videoTestVideo_video9693-shot2_0/img16.jpg,Images/MSR-VTT-videoTestVideo_video9693-shot2_0/img22.jpg,Images/MSR-VTT-videoTestVideo_video9693-shot2_0/img24.jpg,Images/MSR-VTT-videoTestVideo_video9693-shot2_0/img26.jpg,Images/MSR-VTT-videoTestVideo_video9693-shot2_0/img30.jpg,Images/MSR-VTT-videoTestVideo_video9693-shot2_0/img35.jpg,Images/MSR-VTT-videoTestVideo_video9693-shot2_0/img48.jpg,Images/MSR-VTT-videoTestVideo_video9693-shot2_0/img62.jpg,Images/MSR-VTT-videoTestVideo_video9693-shot2_0/img67.jpg,1158,4,0,2022-06-15_12h15.04.576,annotation,2021.2.3,Win32,69.86167389,,
,,,,,,,,,,,,,,,,,0.466145833,-0.115885417,1,0,0,image_9,0,26,26,24,1,1741,Two people sitting on the back of a car.,M,0,5,MSR-VTT-videoTestVideo_video8971-shot0_0,Images/MSR-VTT-videoTestVideo_video8971-shot0_0/img0.jpg,Images/MSR-VTT-videoTestVideo_video8971-shot0_0/img12.jpg,Images/MSR-VTT-videoTestVideo_video8971-shot0_0/img23.jpg,Images/MSR-VTT-videoTestVideo_video8971-shot0_0/img30.jpg,Images/MSR-VTT-videoTestVideo_video8971-shot0_0/img31.jpg,Images/MSR-VTT-videoTestVideo_video8971-shot0_0/img33.jpg,Images/MSR-VTT-videoTestVideo_video8971-shot0_0/img37.jpg,Images/MSR-VTT-videoTestVideo_video8971-shot0_0/img43.jpg,Images/MSR-VTT-videoTestVideo_video8971-shot0_0/img52.jpg,Images/MSR-VTT-videoTestVideo_video8971-shot0_0/img54.jpg,1597,4,0,2022-06-15_12h15.04.576,annotation,2021.2.3,Win32,69.86167389,,
,,,,,,,,,,,,,,,,,0.444010417,0.138020833,1,0,0,image_4,0,27,27,28,1,1328,A young boy is holding a toy bag in front of a door.,M,0,7,video-storytelling-videobirthday__amwPjAcoC8-shot73_1,Images/video-storytelling-videobirthday__amwPjAcoC8-shot73_1/img49.jpg,Images/video-storytelling-videobirthday__amwPjAcoC8-shot73_1/img54.jpg,Images/video-storytelling-videobirthday__amwPjAcoC8-shot73_1/img59.jpg,Images/video-storytelling-videobirthday__amwPjAcoC8-shot73_1/img64.jpg,Images/video-storytelling-videobirthday__amwPjAcoC8-shot73_1/img67.jpg,Images/video-storytelling-videobirthday__amwPjAcoC8-shot73_1/img69.jpg,Images/video-storytelling-videobirthday__amwPjAcoC8-shot73_1/img71.jpg,Images/video-storytelling-videobirthday__amwPjAcoC8-shot73_1/img75.jpg,Images/video-storytelling-videobirthday__amwPjAcoC8-shot73_1/img78.jpg,Images/video-storytelling-videobirthday__amwPjAcoC8-shot73_1/img80.jpg,1298,4,0,2022-06-15_12h15.04.576,annotation,2021.2.3,Win32,69.86167389,,
,,,,,,,,,,,,,,,,,-0.032552083,-0.16796875,1,0,0,image_7,0,28,28,22,1,842,"The woman has her finger in the air, but it is in line with the level of her mouth.",H,0,7,MSR-VTT-videoTestVideo_video9196-shot1_1,Images/MSR-VTT-videoTestVideo_video9196-shot1_1/img24.jpg,Images/MSR-VTT-videoTestVideo_video9196-shot1_1/img29.jpg,Images/MSR-VTT-videoTestVideo_video9196-shot1_1/img32.jpg,Images/MSR-VTT-videoTestVideo_video9196-shot1_1/img35.jpg,Images/MSR-VTT-videoTestVideo_video9196-shot1_1/img48.jpg,Images/MSR-VTT-videoTestVideo_video9196-shot1_1/img66.jpg,Images/MSR-VTT-videoTestVideo_video9196-shot1_1/img81.jpg,Images/MSR-VTT-videoTestVideo_video9196-shot1_1/img89.jpg,Images/MSR-VTT-videoTestVideo_video9196-shot1_1/img98.jpg,Images/MSR-VTT-videoTestVideo_video9196-shot1_1/img107.jpg,273,4,0,2022-06-15_12h15.04.576,annotation,2021.2.3,Win32,69.86167389,,
,,,,,,,,,,,,,,,,,-0.018229167,-0.108072917,1,0,0,image_7,0,29,29,37,1,1607,A picture of a man with a teddy bear on top of him.,M,1,9,video-storytelling-videobirthday__amwPjAcoC8-shot80_4,Images/video-storytelling-videobirthday__amwPjAcoC8-shot80_4/img196.jpg,Images/video-storytelling-videobirthday__amwPjAcoC8-shot80_4/img223.jpg,Images/video-storytelling-videobirthday__amwPjAcoC8-shot80_4/img233.jpg,Images/video-storytelling-videobirthday__amwPjAcoC8-shot80_4/img241.jpg,Images/video-storytelling-videobirthday__amwPjAcoC8-shot80_4/img250.jpg,Images/video-storytelling-videobirthday__amwPjAcoC8-shot80_4/img257.jpg,Images/video-storytelling-videobirthday__amwPjAcoC8-shot80_4/img260.jpg,Images/video-storytelling-videobirthday__amwPjAcoC8-shot80_4/img272.jpg,Images/video-storytelling-videobirthday__amwPjAcoC8-shot80_4/img274.jpg,Images/video-storytelling-videobirthday__amwPjAcoC8-shot80_4/img276.jpg,992,4,0,2022-06-15_12h15.04.576,annotation,2021.2.3,Win32,69.86167389,,
,,,,,,,,,,,,,,,,,0.272135417,-0.162760417,1,0,0,image_8,0,30,30,55,1,655,"The train is on its side, and there is a moving gold ornament that is on the front and covering the smoke stack.",H,0,8,MSR-VTT-videoTestVideo_video8108-shot1_1,Images/MSR-VTT-videoTestVideo_video8108-shot1_1/img91.jpg,Images/MSR-VTT-videoTestVideo_video8108-shot1_1/img98.jpg,Images/MSR-VTT-videoTestVideo_video8108-shot1_1/img108.jpg,Images/MSR-VTT-videoTestVideo_video8108-shot1_1/img120.jpg,Images/MSR-VTT-videoTestVideo_video8108-shot1_1/img124.jpg,Images/MSR-VTT-videoTestVideo_video8108-shot1_1/img131.jpg,Images/MSR-VTT-videoTestVideo_video8108-shot1_1/img143.jpg,Images/MSR-VTT-videoTestVideo_video8108-shot1_1/img148.jpg,Images/MSR-VTT-videoTestVideo_video8108-shot1_1/img153.jpg,Images/MSR-VTT-videoTestVideo_video8108-shot1_1/img163.jpg,1263,4,0,2022-06-15_12h15.04.576,annotation,2021.2.3,Win32,69.86167389,,
,,,,,,,,,,,,,,,,,0.442708333,-0.147135417,1,0,0,image_9,0,31,31,47,1,1814,a close up of a person holding a cell phone.,M,0,0,MSR-VTT-videoTestVideo_video7657-shot2_1,Images/MSR-VTT-videoTestVideo_video7657-shot2_1/img55.jpg,Images/MSR-VTT-videoTestVideo_video7657-shot2_1/img64.jpg,Images/MSR-VTT-videoTestVideo_video7657-shot2_1/img78.jpg,Images/MSR-VTT-videoTestVideo_video7657-shot2_1/img82.jpg,Images/MSR-VTT-videoTestVideo_video7657-shot2_1/img84.jpg,Images/MSR-VTT-videoTestVideo_video7657-shot2_1/img90.jpg,Images/MSR-VTT-videoTestVideo_video7657-shot2_1/img96.jpg,Images/MSR-VTT-videoTestVideo_video7657-shot2_1/img98.jpg,Images/MSR-VTT-videoTestVideo_video7657-shot2_1/img102.jpg,Images/MSR-VTT-videoTestVideo_video7657-shot2_1/img109.jpg,1025,4,0,2022-06-15_12h15.04.576,annotation,2021.2.3,Win32,69.86167389,,
,,,,,,,,,,,,,,,,,-0.455729167,-0.20703125,1,0,0,image_5,0,32,32,59,1,1,The only picture of a hawk.  It is looking to the left.  You see lots of branches and darker blue sky. ,H,,5,open-images-958_686caac9c5b322e7,Checks/check2/open-images-2603_1b5152f01f0093e7img3.jpg,Checks/check2/open-images-1836_069810916ce5d675img8.jpg,Checks/check2/open-images-974_0748fdedc4bf8b7bimg2.jpg,Checks/check2/open-images-617_01fb725fb1aa7b04img6.jpg,Checks/check2/open-images-507_047769e1f977cd97img2.jpg,Checks/check2/open-images-958_686caac9c5b322e7img5.jpg,Checks/check2/open-images-1278_21851d9bf5dc05c9img7.jpg,Checks/check2/open-images-2424_05f04546e01499f2img0.jpg,Checks/check2/open-images-1529_1442b11a10a6aeadimg3.jpg,Checks/check2/open-images-514_2c523ddedc2561d4img1.jpg,,,1,2022-06-15_12h15.04.576,annotation,2021.2.3,Win32,69.86167389,,
,,,,,,,,,,,,,,,,,0.037760417,0.134114583,1,0,0,image_2,0,33,33,42,1,71,The person's hand on the right is covering up the lower left part of his face.  You can see his mouth is open and the hand is covering a bit of his mouth. ,H,1,2,MSR-VTT-videoTestVideo_video7465-shot7_0,Images/MSR-VTT-videoTestVideo_video7465-shot7_0/img0.jpg,Images/MSR-VTT-videoTestVideo_video7465-shot7_0/img1.jpg,Images/MSR-VTT-videoTestVideo_video7465-shot7_0/img2.jpg,Images/MSR-VTT-videoTestVideo_video7465-shot7_0/img3.jpg,Images/MSR-VTT-videoTestVideo_video7465-shot7_0/img7.jpg,Images/MSR-VTT-videoTestVideo_video7465-shot7_0/img11.jpg,Images/MSR-VTT-videoTestVideo_video7465-shot7_0/img16.jpg,Images/MSR-VTT-videoTestVideo_video7465-shot7_0/img21.jpg,Images/MSR-VTT-videoTestVideo_video7465-shot7_0/img26.jpg,Images/MSR-VTT-videoTestVideo_video7465-shot7_0/img30.jpg,1804,4,0,2022-06-15_12h15.04.576,annotation,2021.2.3,Win32,69.86167389,,
,,,,,,,,,,,,,,,,,-0.466145833,-0.12109375,1,0,0,image_5,0,34,34,1,1,1731,A man standing in front of a fence holding a horse.,M,0,2,MSR-VTT-videoTestVideo_video8416-shot0_0,Images/MSR-VTT-videoTestVideo_video8416-shot0_0/img0.jpg,Images/MSR-VTT-videoTestVideo_video8416-shot0_0/img1.jpg,Images/MSR-VTT-videoTestVideo_video8416-shot0_0/img3.jpg,Images/MSR-VTT-videoTestVideo_video8416-shot0_0/img6.jpg,Images/MSR-VTT-videoTestVideo_video8416-shot0_0/img11.jpg,Images/MSR-VTT-videoTestVideo_video8416-shot0_0/img14.jpg,Images/MSR-VTT-videoTestVideo_video8416-shot0_0/img16.jpg,Images/MSR-VTT-videoTestVideo_video8416-shot0_0/img21.jpg,Images/MSR-VTT-videoTestVideo_video8416-shot0_0/img22.jpg,Images/MSR-VTT-videoTestVideo_video8416-shot0_0/img30.jpg,2076,4,0,2022-06-15_12h15.04.576,annotation,2021.2.3,Win32,69.86167389,,
,,,,,,,,,,,,,,,,,0.5234375,0.109375,1,0,0,image_4,0,35,35,33,1,702,"A man holds phone up to his left side, giving best profile to us, most completely here.",H,0,3,MSR-VTT-videoTestVideo_video9623-shot1_1,Images/MSR-VTT-videoTestVideo_video9623-shot1_1/img39.jpg,Images/MSR-VTT-videoTestVideo_video9623-shot1_1/img41.jpg,Images/MSR-VTT-videoTestVideo_video9623-shot1_1/img43.jpg,Images/MSR-VTT-videoTestVideo_video9623-shot1_1/img45.jpg,Images/MSR-VTT-videoTestVideo_video9623-shot1_1/img120.jpg,Images/MSR-VTT-videoTestVideo_video9623-shot1_1/img138.jpg,Images/MSR-VTT-videoTestVideo_video9623-shot1_1/img141.jpg,Images/MSR-VTT-videoTestVideo_video9623-shot1_1/img144.jpg,Images/MSR-VTT-videoTestVideo_video9623-shot1_1/img146.jpg,Images/MSR-VTT-videoTestVideo_video9623-shot1_1/img148.jpg,974,4,0,2022-06-15_12h15.04.576,annotation,2021.2.3,Win32,69.86167389,,
,,,,,,,,,,,,,,,,,0.0546875,0.141927083,1,0,0,image_2,0,36,36,16,1,274,The woman's left hand is visible but her eyes are cut off.,H,0,8,video-storytelling-videochristmas_5RR_sRzKODA-shot36_2,Images/video-storytelling-videochristmas_5RR_sRzKODA-shot36_2/img94.jpg,Images/video-storytelling-videochristmas_5RR_sRzKODA-shot36_2/img97.jpg,Images/video-storytelling-videochristmas_5RR_sRzKODA-shot36_2/img100.jpg,Images/video-storytelling-videochristmas_5RR_sRzKODA-shot36_2/img103.jpg,Images/video-storytelling-videochristmas_5RR_sRzKODA-shot36_2/img121.jpg,Images/video-storytelling-videochristmas_5RR_sRzKODA-shot36_2/img126.jpg,Images/video-storytelling-videochristmas_5RR_sRzKODA-shot36_2/img130.jpg,Images/video-storytelling-videochristmas_5RR_sRzKODA-shot36_2/img132.jpg,Images/video-storytelling-videochristmas_5RR_sRzKODA-shot36_2/img138.jpg,Images/video-storytelling-videochristmas_5RR_sRzKODA-shot36_2/img144.jpg,245,4,0,2022-06-15_12h15.04.576,annotation,2021.2.3,Win32,69.86167389,,
,,,,,,,,,,,,,,,,,0.046875,-0.145833333,1,0,0,image_7,0,37,37,2,1,992,"The pinky finger of the woman in the center front is bent at a 90 degree angle, but it is not touching her face.",H,1,4,video-storytelling-videowedding_Bp8t824h5NE-shot44_0,Images/video-storytelling-videowedding_Bp8t824h5NE-shot44_0/img0.jpg,Images/video-storytelling-videowedding_Bp8t824h5NE-shot44_0/img4.jpg,Images/video-storytelling-videowedding_Bp8t824h5NE-shot44_0/img22.jpg,Images/video-storytelling-videowedding_Bp8t824h5NE-shot44_0/img48.jpg,Images/video-storytelling-videowedding_Bp8t824h5NE-shot44_0/img62.jpg,Images/video-storytelling-videowedding_Bp8t824h5NE-shot44_0/img65.jpg,Images/video-storytelling-videowedding_Bp8t824h5NE-shot44_0/img73.jpg,Images/video-storytelling-videowedding_Bp8t824h5NE-shot44_0/img83.jpg,Images/video-storytelling-videowedding_Bp8t824h5NE-shot44_0/img99.jpg,Images/video-storytelling-videowedding_Bp8t824h5NE-shot44_0/img120.jpg,1187,4,0,2022-06-15_12h15.04.576,annotation,2021.2.3,Win32,69.86167389,,
,,,,,,,,,,,,,,,,,-0.005208333,-0.15234375,1,0,0,image_7,0,38,38,13,1,787,"the picker is in the middle, away from the plate slightly but its not carrying nothing , fings not visible but skin can be seen far left bottom",H,0,4,YouCook-video0035-shot9_2,Images/YouCook-video0035-shot9_2/img270.jpg,Images/YouCook-video0035-shot9_2/img306.jpg,Images/YouCook-video0035-shot9_2/img308.jpg,Images/YouCook-video0035-shot9_2/img313.jpg,Images/YouCook-video0035-shot9_2/img318.jpg,Images/YouCook-video0035-shot9_2/img323.jpg,Images/YouCook-video0035-shot9_2/img334.jpg,Images/YouCook-video0035-shot9_2/img336.jpg,Images/YouCook-video0035-shot9_2/img359.jpg,Images/YouCook-video0035-shot9_2/img376.jpg,2024,4,0,2022-06-15_12h15.04.576,annotation,2021.2.3,Win32,69.86167389,,
,,,,,,,,,,,,,,,,,0.229166667,0.15234375,1,0,0,image_3,0,39,39,10,1,2071,A person is cutting a piece of paper with scissors.,M,0,3,MSR-VTT-videoTestVideo_video9564-shot1_0,Images/MSR-VTT-videoTestVideo_video9564-shot1_0/img0.jpg,Images/MSR-VTT-videoTestVideo_video9564-shot1_0/img7.jpg,Images/MSR-VTT-videoTestVideo_video9564-shot1_0/img9.jpg,Images/MSR-VTT-videoTestVideo_video9564-shot1_0/img14.jpg,Images/MSR-VTT-videoTestVideo_video9564-shot1_0/img36.jpg,Images/MSR-VTT-videoTestVideo_video9564-shot1_0/img59.jpg,Images/MSR-VTT-videoTestVideo_video9564-shot1_0/img78.jpg,Images/MSR-VTT-videoTestVideo_video9564-shot1_0/img83.jpg,Images/MSR-VTT-videoTestVideo_video9564-shot1_0/img85.jpg,Images/MSR-VTT-videoTestVideo_video9564-shot1_0/img112.jpg,51,4,0,2022-06-15_12h15.04.576,annotation,2021.2.3,Win32,69.86167389,,
,,,,,,,,,,,,,,,,,0.188802083,-0.1953125,1,0,0,image_8,0,40,40,4,1,430,"The person in blue is blocking the woman.  On the right, a small section of her head is visible and a third of her body.",H,0,7,MSR-VTT-videoTestVideo_video8022-shot1_3,Images/MSR-VTT-videoTestVideo_video8022-shot1_3/img382.jpg,Images/MSR-VTT-videoTestVideo_video8022-shot1_3/img393.jpg,Images/MSR-VTT-videoTestVideo_video8022-shot1_3/img416.jpg,Images/MSR-VTT-videoTestVideo_video8022-shot1_3/img477.jpg,Images/MSR-VTT-videoTestVideo_video8022-shot1_3/img484.jpg,Images/MSR-VTT-videoTestVideo_video8022-shot1_3/img485.jpg,Images/MSR-VTT-videoTestVideo_video8022-shot1_3/img488.jpg,Images/MSR-VTT-videoTestVideo_video8022-shot1_3/img490.jpg,Images/MSR-VTT-videoTestVideo_video8022-shot1_3/img492.jpg,Images/MSR-VTT-videoTestVideo_video8022-shot1_3/img496.jpg,205,4,0,2022-06-15_12h15.04.576,annotation,2021.2.3,Win32,69.86167389,,
,,,,,,,,,,,,,,,,,-0.459635417,0.098958333,1,0,0,image_0,0,41,41,36,1,1396,A table with lots of food on it.,M,0,0,video-storytelling-videochristmas_5RR_sRzKODA-shot39_0,Images/video-storytelling-videochristmas_5RR_sRzKODA-shot39_0/img0.jpg,Images/video-storytelling-videochristmas_5RR_sRzKODA-shot39_0/img10.jpg,Images/video-storytelling-videochristmas_5RR_sRzKODA-shot39_0/img17.jpg,Images/video-storytelling-videochristmas_5RR_sRzKODA-shot39_0/img23.jpg,Images/video-storytelling-videochristmas_5RR_sRzKODA-shot39_0/img29.jpg,Images/video-storytelling-videochristmas_5RR_sRzKODA-shot39_0/img35.jpg,Images/video-storytelling-videochristmas_5RR_sRzKODA-shot39_0/img40.jpg,Images/video-storytelling-videochristmas_5RR_sRzKODA-shot39_0/img46.jpg,Images/video-storytelling-videochristmas_5RR_sRzKODA-shot39_0/img48.jpg,Images/video-storytelling-videochristmas_5RR_sRzKODA-shot39_0/img53.jpg,1020,4,0,2022-06-15_12h15.04.576,annotation,2021.2.3,Win32,69.86167389,,
,,,,,,,,,,,,,,,,,-0.022135417,-0.16015625,1,0,0,image_7,0,42,42,51,1,1643,A man standing in front of a white couch.,M,0,2,MSR-VTT-videoTestVideo_video8700-shot3_2,Images/MSR-VTT-videoTestVideo_video8700-shot3_2/img143.jpg,Images/MSR-VTT-videoTestVideo_video8700-shot3_2/img146.jpg,Images/MSR-VTT-videoTestVideo_video8700-shot3_2/img152.jpg,Images/MSR-VTT-videoTestVideo_video8700-shot3_2/img157.jpg,Images/MSR-VTT-videoTestVideo_video8700-shot3_2/img162.jpg,Images/MSR-VTT-videoTestVideo_video8700-shot3_2/img168.jpg,Images/MSR-VTT-videoTestVideo_video8700-shot3_2/img172.jpg,Images/MSR-VTT-videoTestVideo_video8700-shot3_2/img178.jpg,Images/MSR-VTT-videoTestVideo_video8700-shot3_2/img182.jpg,Images/MSR-VTT-videoTestVideo_video8700-shot3_2/img186.jpg,404,4,0,2022-06-15_12h15.04.576,annotation,2021.2.3,Win32,69.86167389,,
,,,,,,,,,,,,,,,,,-0.436197917,0.130208333,1,0,0,image_0,0,43,43,25,1,1751,A group of people playing a game of rugby.,M,0,5,MSR-VTT-videoTestVideo_video9823-shot3_1,Images/MSR-VTT-videoTestVideo_video9823-shot3_1/img17.jpg,Images/MSR-VTT-videoTestVideo_video9823-shot3_1/img18.jpg,Images/MSR-VTT-videoTestVideo_video9823-shot3_1/img19.jpg,Images/MSR-VTT-videoTestVideo_video9823-shot3_1/img20.jpg,Images/MSR-VTT-videoTestVideo_video9823-shot3_1/img21.jpg,Images/MSR-VTT-videoTestVideo_video9823-shot3_1/img24.jpg,Images/MSR-VTT-videoTestVideo_video9823-shot3_1/img27.jpg,Images/MSR-VTT-videoTestVideo_video9823-shot3_1/img28.jpg,Images/MSR-VTT-videoTestVideo_video9823-shot3_1/img30.jpg,Images/MSR-VTT-videoTestVideo_video9823-shot3_1/img31.jpg,1366,4,0,2022-06-15_12h15.04.576,annotation,2021.2.3,Win32,69.86167389,,
,,,,,,,,,,,,,,,,,0.32421875,0.12109375,1,0,0,image_3,0,44,44,21,1,1391,A man that is holding a bottle of beer.,M,1,6,MSR-VTT-videoTestVideo_video9229-shot0_0,Images/MSR-VTT-videoTestVideo_video9229-shot0_0/img0.jpg,Images/MSR-VTT-videoTestVideo_video9229-shot0_0/img9.jpg,Images/MSR-VTT-videoTestVideo_video9229-shot0_0/img11.jpg,Images/MSR-VTT-videoTestVideo_video9229-shot0_0/img13.jpg,Images/MSR-VTT-videoTestVideo_video9229-shot0_0/img16.jpg,Images/MSR-VTT-videoTestVideo_video9229-shot0_0/img18.jpg,Images/MSR-VTT-videoTestVideo_video9229-shot0_0/img21.jpg,Images/MSR-VTT-videoTestVideo_video9229-shot0_0/img45.jpg,Images/MSR-VTT-videoTestVideo_video9229-shot0_0/img87.jpg,Images/MSR-VTT-videoTestVideo_video9229-shot0_0/img105.jpg,1621,4,0,2022-06-15_12h15.04.576,annotation,2021.2.3,Win32,69.86167389,,
,,,,,,,,,,,,,,,,,0.0078125,-0.162760417,1,0,0,image_7,0,45,45,27,1,481,The bird is facing to the left and its wing is completely back down on its body. ,H,1,7,MSR-VTT-videoTestVideo_video7113-shot1_1,Images/MSR-VTT-videoTestVideo_video7113-shot1_1/img58.jpg,Images/MSR-VTT-videoTestVideo_video7113-shot1_1/img72.jpg,Images/MSR-VTT-videoTestVideo_video7113-shot1_1/img76.jpg,Images/MSR-VTT-videoTestVideo_video7113-shot1_1/img81.jpg,Images/MSR-VTT-videoTestVideo_video7113-shot1_1/img89.jpg,Images/MSR-VTT-videoTestVideo_video7113-shot1_1/img93.jpg,Images/MSR-VTT-videoTestVideo_video7113-shot1_1/img96.jpg,Images/MSR-VTT-videoTestVideo_video7113-shot1_1/img102.jpg,Images/MSR-VTT-videoTestVideo_video7113-shot1_1/img116.jpg,Images/MSR-VTT-videoTestVideo_video7113-shot1_1/img128.jpg,862,4,0,2022-06-15_12h15.04.576,annotation,2021.2.3,Win32,69.86167389,,
,,,,,,,,,,,,,,,,,0.4765625,-0.091145833,1,0,0,image_9,0,46,46,15,1,1135,A group of people standing on a beach.,M,0,6,MSR-VTT-videoTestVideo_video8955-shot3_3,Images/MSR-VTT-videoTestVideo_video8955-shot3_3/img109.jpg,Images/MSR-VTT-videoTestVideo_video8955-shot3_3/img113.jpg,Images/MSR-VTT-videoTestVideo_video8955-shot3_3/img122.jpg,Images/MSR-VTT-videoTestVideo_video8955-shot3_3/img128.jpg,Images/MSR-VTT-videoTestVideo_video8955-shot3_3/img137.jpg,Images/MSR-VTT-videoTestVideo_video8955-shot3_3/img141.jpg,Images/MSR-VTT-videoTestVideo_video8955-shot3_3/img148.jpg,Images/MSR-VTT-videoTestVideo_video8955-shot3_3/img149.jpg,Images/MSR-VTT-videoTestVideo_video8955-shot3_3/img150.jpg,Images/MSR-VTT-videoTestVideo_video8955-shot3_3/img152.jpg,11,4,0,2022-06-15_12h15.04.576,annotation,2021.2.3,Win32,69.86167389,,
,,,,,,,,,,,,,,,,,0.411458333,-0.151041667,1,0,0,image_9,0,47,47,41,1,1582,A man standing on top of a pool playing with a goat.,M,0,5,video-storytelling-videobirthday__amwPjAcoC8-shot63_3,Images/video-storytelling-videobirthday__amwPjAcoC8-shot63_3/img92.jpg,Images/video-storytelling-videobirthday__amwPjAcoC8-shot63_3/img95.jpg,Images/video-storytelling-videobirthday__amwPjAcoC8-shot63_3/img96.jpg,Images/video-storytelling-videobirthday__amwPjAcoC8-shot63_3/img98.jpg,Images/video-storytelling-videobirthday__amwPjAcoC8-shot63_3/img99.jpg,Images/video-storytelling-videobirthday__amwPjAcoC8-shot63_3/img101.jpg,Images/video-storytelling-videobirthday__amwPjAcoC8-shot63_3/img106.jpg,Images/video-storytelling-videobirthday__amwPjAcoC8-shot63_3/img108.jpg,Images/video-storytelling-videobirthday__amwPjAcoC8-shot63_3/img110.jpg,Images/video-storytelling-videobirthday__amwPjAcoC8-shot63_3/img112.jpg,1849,4,0,2022-06-15_12h15.04.576,annotation,2021.2.3,Win32,69.86167389,,
,,,,,,,,,,,,,,,,,0.2578125,-0.1328125,1,0,0,image_8,0,48,48,20,1,872,"The man in the black jacket is looking up and to his left, his hair is flipped up and blurry but his face is clear.",H,0,4,MSR-VTT-videoTestVideo_video7332-shot4_0,Images/MSR-VTT-videoTestVideo_video7332-shot4_0/img0.jpg,Images/MSR-VTT-videoTestVideo_video7332-shot4_0/img1.jpg,Images/MSR-VTT-videoTestVideo_video7332-shot4_0/img13.jpg,Images/MSR-VTT-videoTestVideo_video7332-shot4_0/img16.jpg,Images/MSR-VTT-videoTestVideo_video7332-shot4_0/img20.jpg,Images/MSR-VTT-videoTestVideo_video7332-shot4_0/img23.jpg,Images/MSR-VTT-videoTestVideo_video7332-shot4_0/img28.jpg,Images/MSR-VTT-videoTestVideo_video7332-shot4_0/img34.jpg,Images/MSR-VTT-videoTestVideo_video7332-shot4_0/img38.jpg,Images/MSR-VTT-videoTestVideo_video7332-shot4_0/img42.jpg,479,4,0,2022-06-15_12h15.04.576,annotation,2021.2.3,Win32,69.86167389,,
,,,,,,,,,,,,,,,,,-0.49609375,0.072916667,1,0,0,image_0,0,49,49,19,1,875,The label of the toy is clearly visible as it points in the direction of the boy's face and the boy's hand is resting on the corner of the box.,H,0,0,video-storytelling-videochristmas_5RR_sRzKODA-shot20_13,Images/video-storytelling-videochristmas_5RR_sRzKODA-shot20_13/img633.jpg,Images/video-storytelling-videochristmas_5RR_sRzKODA-shot20_13/img642.jpg,Images/video-storytelling-videochristmas_5RR_sRzKODA-shot20_13/img646.jpg,Images/video-storytelling-videochristmas_5RR_sRzKODA-shot20_13/img650.jpg,Images/video-storytelling-videochristmas_5RR_sRzKODA-shot20_13/img658.jpg,Images/video-storytelling-videochristmas_5RR_sRzKODA-shot20_13/img664.jpg,Images/video-storytelling-videochristmas_5RR_sRzKODA-shot20_13/img670.jpg,Images/video-storytelling-videochristmas_5RR_sRzKODA-shot20_13/img679.jpg,Images/video-storytelling-videochristmas_5RR_sRzKODA-shot20_13/img682.jpg,Images/video-storytelling-videochristmas_5RR_sRzKODA-shot20_13/img684.jpg,275,4,0,2022-06-15_12h15.04.576,annotation,2021.2.3,Win32,69.86167389,,
,,,,,,,,,,,,,,,,,0.23828125,-0.161458333,1,0,0,image_8,0,50,50,7,1,1779,A person is holding a piece of pizza.,M,0,4,MSR-VTT-videoTestVideo_video9687-shot2_0,Images/MSR-VTT-videoTestVideo_video9687-shot2_0/img0.jpg,Images/MSR-VTT-videoTestVideo_video9687-shot2_0/img2.jpg,Images/MSR-VTT-videoTestVideo_video9687-shot2_0/img5.jpg,Images/MSR-VTT-videoTestVideo_video9687-shot2_0/img8.jpg,Images/MSR-VTT-videoTestVideo_video9687-shot2_0/img11.jpg,Images/MSR-VTT-videoTestVideo_video9687-shot2_0/img15.jpg,Images/MSR-VTT-videoTestVideo_video9687-shot2_0/img20.jpg,Images/MSR-VTT-videoTestVideo_video9687-shot2_0/img29.jpg,Images/MSR-VTT-videoTestVideo_video9687-shot2_0/img43.jpg,Images/MSR-VTT-videoTestVideo_video9687-shot2_0/img49.jpg,1065,4,0,2022-06-15_12h15.04.576,annotation,2021.2.3,Win32,69.86167389,,
,,,,,,,,,,,,,,,,,0.516927083,-0.13671875,1,0,0,image_9,0,51,51,60,1,2,Green type writer with a red tape. ,H,,9,open-images-531_0dd4eb59d465a8be,Checks/check3/open-images-503_1ccd6fa641154ebbimg7.jpg,Checks/check3/open-images-1852_00faf52058ad28b8img4.jpg,Checks/check3/open-images-386_1b2e28d6d994603eimg1.jpg,Checks/check3/open-images-471_1121e9f97c200ac0img8.jpg,Checks/check3/open-images-1886_3db71eaddb618934img8.jpg,Checks/check3/open-images-1696_20a4ebf0c0f76b05img6.jpg,Checks/check3/open-images-2447_128483a48e1552f4img6.jpg,Checks/check3/open-images-2994_9965cbf8aa20bda0img2.jpg,Checks/check3/open-images-1068_03d63613107970b3img6.jpg,Checks/check3/open-images-531_0dd4eb59d465a8beimg9.jpg,,,1,2022-06-15_12h15.04.576,annotation,2021.2.3,Win32,69.86167389,,
,,,,,,,,,,,,,,,,,-0.256510417,-0.153645833,1,0,0,image_6,0,52,52,46,1,2062,A man talking to a group of people outside.,M,1,2,video-storytelling-videowedding_Bp8t824h5NE-shot39_1,Images/video-storytelling-videowedding_Bp8t824h5NE-shot39_1/img104.jpg,Images/video-storytelling-videowedding_Bp8t824h5NE-shot39_1/img117.jpg,Images/video-storytelling-videowedding_Bp8t824h5NE-shot39_1/img222.jpg,Images/video-storytelling-videowedding_Bp8t824h5NE-shot39_1/img257.jpg,Images/video-storytelling-videowedding_Bp8t824h5NE-shot39_1/img343.jpg,Images/video-storytelling-videowedding_Bp8t824h5NE-shot39_1/img389.jpg,Images/video-storytelling-videowedding_Bp8t824h5NE-shot39_1/img394.jpg,Images/video-storytelling-videowedding_Bp8t824h5NE-shot39_1/img401.jpg,Images/video-storytelling-videowedding_Bp8t824h5NE-shot39_1/img416.jpg,Images/video-storytelling-videowedding_Bp8t824h5NE-shot39_1/img429.jpg,350,4,0,2022-06-15_12h15.04.576,annotation,2021.2.3,Win32,69.86167389,,
,,,,,,,,,,,,,,,,,0.015625,-0.169270833,1,0,0,image_7,0,53,53,40,1,877,"Double exposure showing hands cutting into one centered crab leg above three other legs spread out on a silver pan, with longer sliver slash at bottom",H,0,3,YouCook-video0023-shot1_0,Images/YouCook-video0023-shot1_0/img0.jpg,Images/YouCook-video0023-shot1_0/img8.jpg,Images/YouCook-video0023-shot1_0/img12.jpg,Images/YouCook-video0023-shot1_0/img18.jpg,Images/YouCook-video0023-shot1_0/img20.jpg,Images/YouCook-video0023-shot1_0/img24.jpg,Images/YouCook-video0023-shot1_0/img41.jpg,Images/YouCook-video0023-shot1_0/img147.jpg,Images/YouCook-video0023-shot1_0/img194.jpg,Images/YouCook-video0023-shot1_0/img226.jpg,823,4,0,2022-06-15_12h15.04.576,annotation,2021.2.3,Win32,69.86167389,,
,,,,,,,,,,,,,,,,,0.477864583,0.134114583,1,0,0,image_4,0,54,54,49,1,1295,A picture of a chair with a handle on it.,M,0,4,MSR-VTT-videoTestVideo_video8574-shot1_0,Images/MSR-VTT-videoTestVideo_video8574-shot1_0/img0.jpg,Images/MSR-VTT-videoTestVideo_video8574-shot1_0/img5.jpg,Images/MSR-VTT-videoTestVideo_video8574-shot1_0/img8.jpg,Images/MSR-VTT-videoTestVideo_video8574-shot1_0/img9.jpg,Images/MSR-VTT-videoTestVideo_video8574-shot1_0/img11.jpg,Images/MSR-VTT-videoTestVideo_video8574-shot1_0/img13.jpg,Images/MSR-VTT-videoTestVideo_video8574-shot1_0/img15.jpg,Images/MSR-VTT-videoTestVideo_video8574-shot1_0/img19.jpg,Images/MSR-VTT-videoTestVideo_video8574-shot1_0/img23.jpg,Images/MSR-VTT-videoTestVideo_video8574-shot1_0/img31.jpg,509,4,0,2022-06-15_12h15.04.576,annotation,2021.2.3,Win32,69.86167389,,
,,,,,,,,,,,,,,,,,-0.536458333,0.138020833,1,0,0,image_0,0,55,55,3,1,1217,A woman holding a bag in her hands.,M,1,9,MSR-VTT-videoTestVideo_video8868-shot1_1,Images/MSR-VTT-videoTestVideo_video8868-shot1_1/img136.jpg,Images/MSR-VTT-videoTestVideo_video8868-shot1_1/img141.jpg,Images/MSR-VTT-videoTestVideo_video8868-shot1_1/img157.jpg,Images/MSR-VTT-videoTestVideo_video8868-shot1_1/img178.jpg,Images/MSR-VTT-videoTestVideo_video8868-shot1_1/img191.jpg,Images/MSR-VTT-videoTestVideo_video8868-shot1_1/img195.jpg,Images/MSR-VTT-videoTestVideo_video8868-shot1_1/img197.jpg,Images/MSR-VTT-videoTestVideo_video8868-shot1_1/img201.jpg,Images/MSR-VTT-videoTestVideo_video8868-shot1_1/img205.jpg,Images/MSR-VTT-videoTestVideo_video8868-shot1_1/img216.jpg,211,4,0,2022-06-15_12h15.04.576,annotation,2021.2.3,Win32,69.86167389,,
,,,,,,,,,,,,,,,,,0.540364583,-0.165364583,1,0,0,image_9,0,56,56,31,1,88,The man is facing forward and this hands are not showing but he is not frowning.,H,0,7,MSR-VTT-videoTestVideo_video8777-shot1_1,Images/MSR-VTT-videoTestVideo_video8777-shot1_1/img95.jpg,Images/MSR-VTT-videoTestVideo_video8777-shot1_1/img230.jpg,Images/MSR-VTT-videoTestVideo_video8777-shot1_1/img231.jpg,Images/MSR-VTT-videoTestVideo_video8777-shot1_1/img232.jpg,Images/MSR-VTT-videoTestVideo_video8777-shot1_1/img237.jpg,Images/MSR-VTT-videoTestVideo_video8777-shot1_1/img243.jpg,Images/MSR-VTT-videoTestVideo_video8777-shot1_1/img253.jpg,Images/MSR-VTT-videoTestVideo_video8777-shot1_1/img283.jpg,Images/MSR-VTT-videoTestVideo_video8777-shot1_1/img305.jpg,Images/MSR-VTT-videoTestVideo_video8777-shot1_1/img308.jpg,1822,4,0,2022-06-15_12h15.04.576,annotation,2021.2.3,Win32,69.86167389,,
,,,,,,,,,,,,,,,,,-0.239583333,0.130208333,1,0,0,image_1,0,57,57,30,1,517,The man in white's whole neck and head are off frame but the rest of him is visible.  He's roughly in the middle of the image,H,0,1,MSR-VTT-videoTestVideo_video8243-shot0_1,Images/MSR-VTT-videoTestVideo_video8243-shot0_1/img39.jpg,Images/MSR-VTT-videoTestVideo_video8243-shot0_1/img42.jpg,Images/MSR-VTT-videoTestVideo_video8243-shot0_1/img44.jpg,Images/MSR-VTT-videoTestVideo_video8243-shot0_1/img45.jpg,Images/MSR-VTT-videoTestVideo_video8243-shot0_1/img47.jpg,Images/MSR-VTT-videoTestVideo_video8243-shot0_1/img49.jpg,Images/MSR-VTT-videoTestVideo_video8243-shot0_1/img52.jpg,Images/MSR-VTT-videoTestVideo_video8243-shot0_1/img54.jpg,Images/MSR-VTT-videoTestVideo_video8243-shot0_1/img56.jpg,Images/MSR-VTT-videoTestVideo_video8243-shot0_1/img60.jpg,1005,4,0,2022-06-15_12h15.04.576,annotation,2021.2.3,Win32,69.86167389,,
,,,,,,,,,,,,,,,,,-0.477864583,-0.178385417,1,0,0,image_5,0,58,58,53,1,1073,A basketball player jumping up to catch a ball.,M,0,5,MSR-VTT-videoTestVideo_video8013-shot1_0,Images/MSR-VTT-videoTestVideo_video8013-shot1_0/img0.jpg,Images/MSR-VTT-videoTestVideo_video8013-shot1_0/img1.jpg,Images/MSR-VTT-videoTestVideo_video8013-shot1_0/img10.jpg,Images/MSR-VTT-videoTestVideo_video8013-shot1_0/img12.jpg,Images/MSR-VTT-videoTestVideo_video8013-shot1_0/img18.jpg,Images/MSR-VTT-videoTestVideo_video8013-shot1_0/img20.jpg,Images/MSR-VTT-videoTestVideo_video8013-shot1_0/img24.jpg,Images/MSR-VTT-videoTestVideo_video8013-shot1_0/img25.jpg,Images/MSR-VTT-videoTestVideo_video8013-shot1_0/img30.jpg,Images/MSR-VTT-videoTestVideo_video8013-shot1_0/img31.jpg,390,4,0,2022-06-15_12h15.04.576,annotation,2021.2.3,Win32,69.86167389,,
,,,,,,,,,,,,,,,,,0.4453125,-0.100260417,1,0,0,image_9,0,59,59,32,1,563,You can see quite a bit of the eye of the red dog in the right side of the image.  You can see some of the blue of that dog's eye. ,H,0,9,video-storytelling-videobirthday__amwPjAcoC8-shot80_4,Images/video-storytelling-videobirthday__amwPjAcoC8-shot80_4/img196.jpg,Images/video-storytelling-videobirthday__amwPjAcoC8-shot80_4/img223.jpg,Images/video-storytelling-videobirthday__amwPjAcoC8-shot80_4/img233.jpg,Images/video-storytelling-videobirthday__amwPjAcoC8-shot80_4/img241.jpg,Images/video-storytelling-videobirthday__amwPjAcoC8-shot80_4/img250.jpg,Images/video-storytelling-videobirthday__amwPjAcoC8-shot80_4/img257.jpg,Images/video-storytelling-videobirthday__amwPjAcoC8-shot80_4/img260.jpg,Images/video-storytelling-videobirthday__amwPjAcoC8-shot80_4/img272.jpg,Images/video-storytelling-videobirthday__amwPjAcoC8-shot80_4/img274.jpg,Images/video-storytelling-videobirthday__amwPjAcoC8-shot80_4/img276.jpg,110,4,0,2022-06-15_12h15.04.576,annotation,2021.2.3,Win32,69.86167389,,
,,,,,,,,,,,,,,,,,-0.263020833,0.131510417,1,0,0,image_1,0,60,60,14,1,912,The brown and black object is mostly off the screen on the right as the camera faces a white and brown arch,H,1,0,MSR-VTT-videoTestVideo_video7780-shot3_4,Images/MSR-VTT-videoTestVideo_video7780-shot3_4/img75.jpg,Images/MSR-VTT-videoTestVideo_video7780-shot3_4/img76.jpg,Images/MSR-VTT-videoTestVideo_video7780-shot3_4/img77.jpg,Images/MSR-VTT-videoTestVideo_video7780-shot3_4/img78.jpg,Images/MSR-VTT-videoTestVideo_video7780-shot3_4/img79.jpg,Images/MSR-VTT-videoTestVideo_video7780-shot3_4/img80.jpg,Images/MSR-VTT-videoTestVideo_video7780-shot3_4/img82.jpg,Images/MSR-VTT-videoTestVideo_video7780-shot3_4/img83.jpg,Images/MSR-VTT-videoTestVideo_video7780-shot3_4/img86.jpg,Images/MSR-VTT-videoTestVideo_video7780-shot3_4/img87.jpg,284,4,0,2022-06-15_12h15.04.576,annotation,2021.2.3,Win32,69.86167389,,
,,,,,,,,,,,,,,,,,0.247395833,-0.12109375,1,0,0,image_8,0,61,61,35,1,876,The person is gripping an object in both hands.  The left and right hands appear to be roughly at the same level with each other. ,H,1,7,MSR-VTT-videoTestVideo_video9161-shot1_0,Images/MSR-VTT-videoTestVideo_video9161-shot1_0/img0.jpg,Images/MSR-VTT-videoTestVideo_video9161-shot1_0/img10.jpg,Images/MSR-VTT-videoTestVideo_video9161-shot1_0/img30.jpg,Images/MSR-VTT-videoTestVideo_video9161-shot1_0/img83.jpg,Images/MSR-VTT-videoTestVideo_video9161-shot1_0/img87.jpg,Images/MSR-VTT-videoTestVideo_video9161-shot1_0/img90.jpg,Images/MSR-VTT-videoTestVideo_video9161-shot1_0/img95.jpg,Images/MSR-VTT-videoTestVideo_video9161-shot1_0/img105.jpg,Images/MSR-VTT-videoTestVideo_video9161-shot1_0/img111.jpg,Images/MSR-VTT-videoTestVideo_video9161-shot1_0/img114.jpg,114,4,0,2022-06-15_12h15.04.576,annotation,2021.2.3,Win32,69.86167389,,
,,,,,,,,,,,,,,,,,0.505208333,-0.171875,1,0,0,image_9,0,62,62,0,1,1104,A view of a street with a van on the side of the road.,M,0,8,MSR-VTT-videoTestVideo_video8468-shot1_0,Images/MSR-VTT-videoTestVideo_video8468-shot1_0/img0.jpg,Images/MSR-VTT-videoTestVideo_video8468-shot1_0/img7.jpg,Images/MSR-VTT-videoTestVideo_video8468-shot1_0/img9.jpg,Images/MSR-VTT-videoTestVideo_video8468-shot1_0/img22.jpg,Images/MSR-VTT-videoTestVideo_video8468-shot1_0/img39.jpg,Images/MSR-VTT-videoTestVideo_video8468-shot1_0/img47.jpg,Images/MSR-VTT-videoTestVideo_video8468-shot1_0/img63.jpg,Images/MSR-VTT-videoTestVideo_video8468-shot1_0/img67.jpg,Images/MSR-VTT-videoTestVideo_video8468-shot1_0/img83.jpg,Images/MSR-VTT-videoTestVideo_video8468-shot1_0/img86.jpg,1058,4,0,2022-06-15_12h15.04.576,annotation,2021.2.3,Win32,69.86167389,,
,,,,,,,,,,,,,,,,,,,,,,,,,,,,,,,,,,,,,,,,,,,,,,,2022-06-15_12h15.04.576,annotation,2021.2.3,Win32,69.86167389,space,53.9837
