mturk,key_resp_2.keys,key_resp_2.rt,key_resp_3.keys,key_resp_3.rt,mouse_2.x,mouse_2.y,mouse_2.leftButton,mouse_2.midButton,mouse_2.rightButton,mouse_2.clicked_name,key_resp_5.keys,key_resp_5.rt,key_resp.keys,key_resp.rt,key_resp_6.keys,key_resp_6.rt,mouse.x,mouse.y,mouse.leftButton,mouse.midButton,mouse.rightButton,mouse.time,mouse.clicked_name,trials.thisRepN,trials.thisTrialN,trials.thisN,trials.thisIndex,trials.ran,N,caption,class_caption,model_guessed,target_idx,image_set,img1,img2,img3,img4,img5,img6,img7,img8,img9,img10,Q_id,block,is_check,date,expName,psychopyVersion,OS,frameRate,key_resp_7.keys,key_resp_7.rt
8509097,space,4.8108,space,3.8087,0.253472222,0.033333333,1,0,0,ex4,space,3.2724,space,4.0955,space,1.0076,-0.518055556,-0.177777778,1,0,0,10.4319,image_5,0,0,0,15,1,1009,The singer has the mic away from his mouth a bit. His mouth is open with teeth clench. The image is quite clear.,H,0,5,MSR-VTT-videoTestVideo_video9519-shot4_1,Images/MSR-VTT-videoTestVideo_video9519-shot4_1/img33.jpg,Images/MSR-VTT-videoTestVideo_video9519-shot4_1/img38.jpg,Images/MSR-VTT-videoTestVideo_video9519-shot4_1/img40.jpg,Images/MSR-VTT-videoTestVideo_video9519-shot4_1/img42.jpg,Images/MSR-VTT-videoTestVideo_video9519-shot4_1/img43.jpg,Images/MSR-VTT-videoTestVideo_video9519-shot4_1/img46.jpg,Images/MSR-VTT-videoTestVideo_video9519-shot4_1/img51.jpg,Images/MSR-VTT-videoTestVideo_video9519-shot4_1/img53.jpg,Images/MSR-VTT-videoTestVideo_video9519-shot4_1/img56.jpg,Images/MSR-VTT-videoTestVideo_video9519-shot4_1/img58.jpg,283,31,0,2022-06-17_09h50.48.427,annotation,2021.2.3,Win32,59.94485074,,
,,,,,,,,,,,,,,,,,0.01875,0.070138889,1,0,0,3.8658,image_2,0,1,1,58,1,0,Pair of black gloves,H,,2,open-images-510_3a241cb30d6e5319,Checks/check1/open-images-225_1442c0d0ef23d58bimg3.jpg,Checks/check1/open-images-2759_3a42708fe77398b7img8.jpg,Checks/check1/open-images-510_3a241cb30d6e5319img2.jpg,Checks/check1/open-images-2209_02c98146fb93ff17img1.jpg,Checks/check1/open-images-1553_0f128317e56a9d2fimg9.jpg,Checks/check1/open-images-2666_044d7c6d11e6b493img8.jpg,Checks/check1/open-images-2880_159294646083f545img4.jpg,Checks/check1/open-images-609_2dc0baa993a2bd25img5.jpg,Checks/check1/open-images-1854_2b15616b4f1080e7img2.jpg,Checks/check1/open-images-1435_1b0ce31951048765img8.jpg,,,1,2022-06-17_09h50.48.427,annotation,2021.2.3,Win32,59.94485074,,
,,,,,,,,,,,,,,,,,-0.484722222,-0.152083333,1,0,0,4.2494,image_5,0,2,2,59,1,1,The only picture of a hawk.  It is looking to the left.  You see lots of branches and darker blue sky. ,H,,5,open-images-958_686caac9c5b322e7,Checks/check2/open-images-2603_1b5152f01f0093e7img3.jpg,Checks/check2/open-images-1836_069810916ce5d675img8.jpg,Checks/check2/open-images-974_0748fdedc4bf8b7bimg2.jpg,Checks/check2/open-images-617_01fb725fb1aa7b04img6.jpg,Checks/check2/open-images-507_047769e1f977cd97img2.jpg,Checks/check2/open-images-958_686caac9c5b322e7img5.jpg,Checks/check2/open-images-1278_21851d9bf5dc05c9img7.jpg,Checks/check2/open-images-2424_05f04546e01499f2img0.jpg,Checks/check2/open-images-1529_1442b11a10a6aeadimg3.jpg,Checks/check2/open-images-514_2c523ddedc2561d4img1.jpg,,,1,2022-06-17_09h50.48.427,annotation,2021.2.3,Win32,59.94485074,,
,,,,,,,,,,,,,,,,,0.283333333,-0.214583333,1,0,0,22.3463,image_8,0,3,3,52,1,196,the bride and groom are not touching and you can only see the black sleeve and a paper in the hand of the guy behind him,H,1,8,video-storytelling-videowedding_Bp8t824h5NE-shot69_1,Images/video-storytelling-videowedding_Bp8t824h5NE-shot69_1/img227.jpg,Images/video-storytelling-videowedding_Bp8t824h5NE-shot69_1/img250.jpg,Images/video-storytelling-videowedding_Bp8t824h5NE-shot69_1/img275.jpg,Images/video-storytelling-videowedding_Bp8t824h5NE-shot69_1/img323.jpg,Images/video-storytelling-videowedding_Bp8t824h5NE-shot69_1/img428.jpg,Images/video-storytelling-videowedding_Bp8t824h5NE-shot69_1/img477.jpg,Images/video-storytelling-videowedding_Bp8t824h5NE-shot69_1/img492.jpg,Images/video-storytelling-videowedding_Bp8t824h5NE-shot69_1/img540.jpg,Images/video-storytelling-videowedding_Bp8t824h5NE-shot69_1/img565.jpg,Images/video-storytelling-videowedding_Bp8t824h5NE-shot69_1/img602.jpg,694,31,0,2022-06-17_09h50.48.427,annotation,2021.2.3,Win32,59.94485074,,
,,,,,,,,,,,,,,,,,0.524305556,-0.190277778,1,0,0,27.7784,image_9,0,4,4,37,1,929,The second blue object is clearly in the person's right hand and is about to be put into place. ,H,0,9,MSR-VTT-videoTestVideo_video9143-shot1_0,Images/MSR-VTT-videoTestVideo_video9143-shot1_0/img0.jpg,Images/MSR-VTT-videoTestVideo_video9143-shot1_0/img5.jpg,Images/MSR-VTT-videoTestVideo_video9143-shot1_0/img12.jpg,Images/MSR-VTT-videoTestVideo_video9143-shot1_0/img26.jpg,Images/MSR-VTT-videoTestVideo_video9143-shot1_0/img49.jpg,Images/MSR-VTT-videoTestVideo_video9143-shot1_0/img58.jpg,Images/MSR-VTT-videoTestVideo_video9143-shot1_0/img62.jpg,Images/MSR-VTT-videoTestVideo_video9143-shot1_0/img66.jpg,Images/MSR-VTT-videoTestVideo_video9143-shot1_0/img70.jpg,Images/MSR-VTT-videoTestVideo_video9143-shot1_0/img82.jpg,526,31,0,2022-06-17_09h50.48.427,annotation,2021.2.3,Win32,59.94485074,,
,,,,,,,,,,,,,,,,,0.013888889,-0.227777778,1,0,0,31.1112,image_7,0,5,5,30,1,915,the finger can be seen placed right on the inscription under the blue virus image and the pictures are clearly visible with an owl image under the finger,H,0,7,MSR-VTT-videoTestVideo_video9389-shot1_0,Images/MSR-VTT-videoTestVideo_video9389-shot1_0/img0.jpg,Images/MSR-VTT-videoTestVideo_video9389-shot1_0/img52.jpg,Images/MSR-VTT-videoTestVideo_video9389-shot1_0/img102.jpg,Images/MSR-VTT-videoTestVideo_video9389-shot1_0/img108.jpg,Images/MSR-VTT-videoTestVideo_video9389-shot1_0/img129.jpg,Images/MSR-VTT-videoTestVideo_video9389-shot1_0/img151.jpg,Images/MSR-VTT-videoTestVideo_video9389-shot1_0/img154.jpg,Images/MSR-VTT-videoTestVideo_video9389-shot1_0/img160.jpg,Images/MSR-VTT-videoTestVideo_video9389-shot1_0/img169.jpg,Images/MSR-VTT-videoTestVideo_video9389-shot1_0/img173.jpg,1647,31,0,2022-06-17_09h50.48.427,annotation,2021.2.3,Win32,59.94485074,,
,,,,,,,,,,,,,,,,,-0.464583333,-0.215277778,1,0,0,35.8102,image_5,0,6,6,28,1,1316,A close up of a woman in a white shirt and tie.,M,0,5,MSR-VTT-videoTestVideo_video9454-shot0_2,Images/MSR-VTT-videoTestVideo_video9454-shot0_2/img515.jpg,Images/MSR-VTT-videoTestVideo_video9454-shot0_2/img532.jpg,Images/MSR-VTT-videoTestVideo_video9454-shot0_2/img538.jpg,Images/MSR-VTT-videoTestVideo_video9454-shot0_2/img564.jpg,Images/MSR-VTT-videoTestVideo_video9454-shot0_2/img584.jpg,Images/MSR-VTT-videoTestVideo_video9454-shot0_2/img622.jpg,Images/MSR-VTT-videoTestVideo_video9454-shot0_2/img630.jpg,Images/MSR-VTT-videoTestVideo_video9454-shot0_2/img640.jpg,Images/MSR-VTT-videoTestVideo_video9454-shot0_2/img645.jpg,Images/MSR-VTT-videoTestVideo_video9454-shot0_2/img648.jpg,849,31,0,2022-06-17_09h50.48.427,annotation,2021.2.3,Win32,59.94485074,,
,,,,,,,,,,,,,,,,,0.490277778,-0.154166667,1,0,0,15.7974,image_9,0,7,7,0,1,1146,A woman standing next to a man in a wedding dress.,M,1,3,video-storytelling-videowedding_Bp8t824h5NE-shot62_2,Images/video-storytelling-videowedding_Bp8t824h5NE-shot62_2/img199.jpg,Images/video-storytelling-videowedding_Bp8t824h5NE-shot62_2/img212.jpg,Images/video-storytelling-videowedding_Bp8t824h5NE-shot62_2/img228.jpg,Images/video-storytelling-videowedding_Bp8t824h5NE-shot62_2/img248.jpg,Images/video-storytelling-videowedding_Bp8t824h5NE-shot62_2/img302.jpg,Images/video-storytelling-videowedding_Bp8t824h5NE-shot62_2/img368.jpg,Images/video-storytelling-videowedding_Bp8t824h5NE-shot62_2/img437.jpg,Images/video-storytelling-videowedding_Bp8t824h5NE-shot62_2/img449.jpg,Images/video-storytelling-videowedding_Bp8t824h5NE-shot62_2/img487.jpg,Images/video-storytelling-videowedding_Bp8t824h5NE-shot62_2/img520.jpg,447,31,0,2022-06-17_09h50.48.427,annotation,2021.2.3,Win32,59.94485074,,
,,,,,,,,,,,,,,,,,-0.480555556,-0.140972222,1,0,0,23.0627,image_5,0,8,8,4,1,735,One full hand and 2 fingers from the other hand are fully visible ,H,0,4,MSR-VTT-videoTestVideo_video9687-shot2_0,Images/MSR-VTT-videoTestVideo_video9687-shot2_0/img0.jpg,Images/MSR-VTT-videoTestVideo_video9687-shot2_0/img2.jpg,Images/MSR-VTT-videoTestVideo_video9687-shot2_0/img5.jpg,Images/MSR-VTT-videoTestVideo_video9687-shot2_0/img8.jpg,Images/MSR-VTT-videoTestVideo_video9687-shot2_0/img11.jpg,Images/MSR-VTT-videoTestVideo_video9687-shot2_0/img15.jpg,Images/MSR-VTT-videoTestVideo_video9687-shot2_0/img20.jpg,Images/MSR-VTT-videoTestVideo_video9687-shot2_0/img29.jpg,Images/MSR-VTT-videoTestVideo_video9687-shot2_0/img43.jpg,Images/MSR-VTT-videoTestVideo_video9687-shot2_0/img49.jpg,958,31,0,2022-06-17_09h50.48.427,annotation,2021.2.3,Win32,59.94485074,,
,,,,,,,,,,,,,,,,,0.252777778,0.071527778,1,0,0,14.0478,image_3,0,9,9,29,1,1581,A couple of people laying on top of a basketball court.,M,0,6,MSR-VTT-videoTestVideo_video7286-shot1_0,Images/MSR-VTT-videoTestVideo_video7286-shot1_0/img0.jpg,Images/MSR-VTT-videoTestVideo_video7286-shot1_0/img6.jpg,Images/MSR-VTT-videoTestVideo_video7286-shot1_0/img12.jpg,Images/MSR-VTT-videoTestVideo_video7286-shot1_0/img40.jpg,Images/MSR-VTT-videoTestVideo_video7286-shot1_0/img75.jpg,Images/MSR-VTT-videoTestVideo_video7286-shot1_0/img81.jpg,Images/MSR-VTT-videoTestVideo_video7286-shot1_0/img85.jpg,Images/MSR-VTT-videoTestVideo_video7286-shot1_0/img92.jpg,Images/MSR-VTT-videoTestVideo_video7286-shot1_0/img102.jpg,Images/MSR-VTT-videoTestVideo_video7286-shot1_0/img105.jpg,1287,31,0,2022-06-17_09h50.48.427,annotation,2021.2.3,Win32,59.94485074,,
,,,,,,,,,,,,,,,,,-0.004861111,-0.211111111,1,0,0,14.664,image_7,0,10,10,32,1,308,"just legs and one foot showing, both feet on ground,  one foot hidden by the circle target item",H,0,7,MSR-VTT-videoTestVideo_video7652-shot1_2,Images/MSR-VTT-videoTestVideo_video7652-shot1_2/img150.jpg,Images/MSR-VTT-videoTestVideo_video7652-shot1_2/img152.jpg,Images/MSR-VTT-videoTestVideo_video7652-shot1_2/img154.jpg,Images/MSR-VTT-videoTestVideo_video7652-shot1_2/img155.jpg,Images/MSR-VTT-videoTestVideo_video7652-shot1_2/img157.jpg,Images/MSR-VTT-videoTestVideo_video7652-shot1_2/img175.jpg,Images/MSR-VTT-videoTestVideo_video7652-shot1_2/img176.jpg,Images/MSR-VTT-videoTestVideo_video7652-shot1_2/img184.jpg,Images/MSR-VTT-videoTestVideo_video7652-shot1_2/img189.jpg,Images/MSR-VTT-videoTestVideo_video7652-shot1_2/img191.jpg,192,31,0,2022-06-17_09h50.48.427,annotation,2021.2.3,Win32,59.94485074,,
,,,,,,,,,,,,,,,,,-0.474305556,-0.195833333,1,0,0,23.3791,image_5,0,11,11,13,1,1334,A woman with a pony on her head.,M,0,7,video-storytelling-videocamping_1OzbiB1TIWI-shot12_8,Images/video-storytelling-videocamping_1OzbiB1TIWI-shot12_8/img429.jpg,Images/video-storytelling-videocamping_1OzbiB1TIWI-shot12_8/img439.jpg,Images/video-storytelling-videocamping_1OzbiB1TIWI-shot12_8/img440.jpg,Images/video-storytelling-videocamping_1OzbiB1TIWI-shot12_8/img441.jpg,Images/video-storytelling-videocamping_1OzbiB1TIWI-shot12_8/img443.jpg,Images/video-storytelling-videocamping_1OzbiB1TIWI-shot12_8/img445.jpg,Images/video-storytelling-videocamping_1OzbiB1TIWI-shot12_8/img452.jpg,Images/video-storytelling-videocamping_1OzbiB1TIWI-shot12_8/img456.jpg,Images/video-storytelling-videocamping_1OzbiB1TIWI-shot12_8/img458.jpg,Images/video-storytelling-videocamping_1OzbiB1TIWI-shot12_8/img466.jpg,1678,31,0,2022-06-17_09h50.48.427,annotation,2021.2.3,Win32,59.94485074,,
,,,,,,,,,,,,,,,,,0.520833333,0.102777778,1,0,0,5.1324,image_4,0,12,12,39,1,1349,A street sign on the side of a road.,M,0,5,video-storytelling-videocamping_dBXYM3dQTSo-shot3_0,Images/video-storytelling-videocamping_dBXYM3dQTSo-shot3_0/img0.jpg,Images/video-storytelling-videocamping_dBXYM3dQTSo-shot3_0/img6.jpg,Images/video-storytelling-videocamping_dBXYM3dQTSo-shot3_0/img31.jpg,Images/video-storytelling-videocamping_dBXYM3dQTSo-shot3_0/img37.jpg,Images/video-storytelling-videocamping_dBXYM3dQTSo-shot3_0/img43.jpg,Images/video-storytelling-videocamping_dBXYM3dQTSo-shot3_0/img45.jpg,Images/video-storytelling-videocamping_dBXYM3dQTSo-shot3_0/img48.jpg,Images/video-storytelling-videocamping_dBXYM3dQTSo-shot3_0/img51.jpg,Images/video-storytelling-videocamping_dBXYM3dQTSo-shot3_0/img61.jpg,Images/video-storytelling-videocamping_dBXYM3dQTSo-shot3_0/img77.jpg,1324,31,0,2022-06-17_09h50.48.427,annotation,2021.2.3,Win32,59.94485074,,
,,,,,,,,,,,,,,,,,0.029861111,0.083333333,1,0,0,24.1791,image_2,0,13,13,24,1,353,One full hand and three fingers from the other hand are visible on the woman on the right,H,0,1,video-storytelling-videochristmas_5RR_sRzKODA-shot39_0,Images/video-storytelling-videochristmas_5RR_sRzKODA-shot39_0/img0.jpg,Images/video-storytelling-videochristmas_5RR_sRzKODA-shot39_0/img10.jpg,Images/video-storytelling-videochristmas_5RR_sRzKODA-shot39_0/img17.jpg,Images/video-storytelling-videochristmas_5RR_sRzKODA-shot39_0/img23.jpg,Images/video-storytelling-videochristmas_5RR_sRzKODA-shot39_0/img29.jpg,Images/video-storytelling-videochristmas_5RR_sRzKODA-shot39_0/img35.jpg,Images/video-storytelling-videochristmas_5RR_sRzKODA-shot39_0/img40.jpg,Images/video-storytelling-videochristmas_5RR_sRzKODA-shot39_0/img46.jpg,Images/video-storytelling-videochristmas_5RR_sRzKODA-shot39_0/img48.jpg,Images/video-storytelling-videochristmas_5RR_sRzKODA-shot39_0/img53.jpg,452,31,0,2022-06-17_09h50.48.427,annotation,2021.2.3,Win32,59.94485074,,
,,,,,,,,,,,,,,,,,0.21875,0.106944444,1,0,0,69.8047,image_3,0,14,14,38,1,1136,A blurry image of a person standing next to a motorbike.,M,1,3,MSR-VTT-videoTestVideo_video8931-shot1_1,Images/MSR-VTT-videoTestVideo_video8931-shot1_1/img276.jpg,Images/MSR-VTT-videoTestVideo_video8931-shot1_1/img291.jpg,Images/MSR-VTT-videoTestVideo_video8931-shot1_1/img300.jpg,Images/MSR-VTT-videoTestVideo_video8931-shot1_1/img330.jpg,Images/MSR-VTT-videoTestVideo_video8931-shot1_1/img367.jpg,Images/MSR-VTT-videoTestVideo_video8931-shot1_1/img396.jpg,Images/MSR-VTT-videoTestVideo_video8931-shot1_1/img417.jpg,Images/MSR-VTT-videoTestVideo_video8931-shot1_1/img422.jpg,Images/MSR-VTT-videoTestVideo_video8931-shot1_1/img442.jpg,Images/MSR-VTT-videoTestVideo_video8931-shot1_1/img494.jpg,978,31,0,2022-06-17_09h50.48.427,annotation,2021.2.3,Win32,59.94485074,,
,,,,,,,,,,,,,,,,,0.538194444,-0.184027778,1,0,0,5.4489,image_9,0,15,15,51,1,372,"Both of the man's hand are visible. There is a spoon, pink spatula, and wire whisk on the table.  ",H,0,9,YouCook-video0010-shot1_3,Images/YouCook-video0010-shot1_3/img376.jpg,Images/YouCook-video0010-shot1_3/img379.jpg,Images/YouCook-video0010-shot1_3/img384.jpg,Images/YouCook-video0010-shot1_3/img390.jpg,Images/YouCook-video0010-shot1_3/img398.jpg,Images/YouCook-video0010-shot1_3/img407.jpg,Images/YouCook-video0010-shot1_3/img409.jpg,Images/YouCook-video0010-shot1_3/img411.jpg,Images/YouCook-video0010-shot1_3/img418.jpg,Images/YouCook-video0010-shot1_3/img423.jpg,1645,31,0,2022-06-17_09h50.48.427,annotation,2021.2.3,Win32,59.94485074,,
,,,,,,,,,,,,,,,,,0.276388889,0.079166667,1,0,0,17.8804,image_3,0,16,16,9,1,1538,A group of people are sitting on top of a horse.,M,0,3,MSR-VTT-videoTestVideo_video9248-shot0_1,Images/MSR-VTT-videoTestVideo_video9248-shot0_1/img62.jpg,Images/MSR-VTT-videoTestVideo_video9248-shot0_1/img71.jpg,Images/MSR-VTT-videoTestVideo_video9248-shot0_1/img88.jpg,Images/MSR-VTT-videoTestVideo_video9248-shot0_1/img92.jpg,Images/MSR-VTT-videoTestVideo_video9248-shot0_1/img98.jpg,Images/MSR-VTT-videoTestVideo_video9248-shot0_1/img125.jpg,Images/MSR-VTT-videoTestVideo_video9248-shot0_1/img147.jpg,Images/MSR-VTT-videoTestVideo_video9248-shot0_1/img153.jpg,Images/MSR-VTT-videoTestVideo_video9248-shot0_1/img163.jpg,Images/MSR-VTT-videoTestVideo_video9248-shot0_1/img193.jpg,1776,31,0,2022-06-17_09h50.48.427,annotation,2021.2.3,Win32,59.94485074,,
,,,,,,,,,,,,,,,,,0.481944444,-0.205555556,1,0,0,23.5626,image_9,0,17,17,26,1,1578,A person is swimming in the water.,M,0,6,MSR-VTT-videoTestVideo_video9830-shot1_0,Images/MSR-VTT-videoTestVideo_video9830-shot1_0/img0.jpg,Images/MSR-VTT-videoTestVideo_video9830-shot1_0/img7.jpg,Images/MSR-VTT-videoTestVideo_video9830-shot1_0/img11.jpg,Images/MSR-VTT-videoTestVideo_video9830-shot1_0/img20.jpg,Images/MSR-VTT-videoTestVideo_video9830-shot1_0/img24.jpg,Images/MSR-VTT-videoTestVideo_video9830-shot1_0/img30.jpg,Images/MSR-VTT-videoTestVideo_video9830-shot1_0/img35.jpg,Images/MSR-VTT-videoTestVideo_video9830-shot1_0/img40.jpg,Images/MSR-VTT-videoTestVideo_video9830-shot1_0/img43.jpg,Images/MSR-VTT-videoTestVideo_video9830-shot1_0/img44.jpg,1043,31,0,2022-06-17_09h50.48.427,annotation,2021.2.3,Win32,59.94485074,,
,,,,,,,,,,,,,,,,,0.252777778,0.093055556,1,0,0,25.779,image_3,0,18,18,55,1,981,The very front circular part of the camera has just dropped off the bottom left corner of the image.  ,H,0,4,MSR-VTT-videoTestVideo_video8959-shot2_0,Images/MSR-VTT-videoTestVideo_video8959-shot2_0/img0.jpg,Images/MSR-VTT-videoTestVideo_video8959-shot2_0/img5.jpg,Images/MSR-VTT-videoTestVideo_video8959-shot2_0/img10.jpg,Images/MSR-VTT-videoTestVideo_video8959-shot2_0/img13.jpg,Images/MSR-VTT-videoTestVideo_video8959-shot2_0/img16.jpg,Images/MSR-VTT-videoTestVideo_video8959-shot2_0/img24.jpg,Images/MSR-VTT-videoTestVideo_video8959-shot2_0/img26.jpg,Images/MSR-VTT-videoTestVideo_video8959-shot2_0/img28.jpg,Images/MSR-VTT-videoTestVideo_video8959-shot2_0/img30.jpg,Images/MSR-VTT-videoTestVideo_video8959-shot2_0/img37.jpg,1712,31,0,2022-06-17_09h50.48.427,annotation,2021.2.3,Win32,59.94485074,,
,,,,,,,,,,,,,,,,,0.503472222,-0.160416667,1,0,0,17.7638,image_9,0,19,19,44,1,1593,A man and a woman standing next to each other.,M,0,6,video-storytelling-videowedding_Bp8t824h5NE-shot69_4,Images/video-storytelling-videowedding_Bp8t824h5NE-shot69_4/img1753.jpg,Images/video-storytelling-videowedding_Bp8t824h5NE-shot69_4/img1841.jpg,Images/video-storytelling-videowedding_Bp8t824h5NE-shot69_4/img1864.jpg,Images/video-storytelling-videowedding_Bp8t824h5NE-shot69_4/img1870.jpg,Images/video-storytelling-videowedding_Bp8t824h5NE-shot69_4/img1873.jpg,Images/video-storytelling-videowedding_Bp8t824h5NE-shot69_4/img1878.jpg,Images/video-storytelling-videowedding_Bp8t824h5NE-shot69_4/img1886.jpg,Images/video-storytelling-videowedding_Bp8t824h5NE-shot69_4/img1895.jpg,Images/video-storytelling-videowedding_Bp8t824h5NE-shot69_4/img1907.jpg,Images/video-storytelling-videowedding_Bp8t824h5NE-shot69_4/img2131.jpg,1760,31,0,2022-06-17_09h50.48.427,annotation,2021.2.3,Win32,59.94485074,,
,,,,,,,,,,,,,,,,,0.013888889,-0.221527778,1,0,0,11.8813,image_7,0,20,20,31,1,131,"The toddler's head is in the far left bottom corner, and no plate is visible by the other person's bent arm.",H,0,7,MSR-VTT-videoTestVideo_video8522-shot1_1,Images/MSR-VTT-videoTestVideo_video8522-shot1_1/img151.jpg,Images/MSR-VTT-videoTestVideo_video8522-shot1_1/img154.jpg,Images/MSR-VTT-videoTestVideo_video8522-shot1_1/img158.jpg,Images/MSR-VTT-videoTestVideo_video8522-shot1_1/img160.jpg,Images/MSR-VTT-videoTestVideo_video8522-shot1_1/img162.jpg,Images/MSR-VTT-videoTestVideo_video8522-shot1_1/img165.jpg,Images/MSR-VTT-videoTestVideo_video8522-shot1_1/img167.jpg,Images/MSR-VTT-videoTestVideo_video8522-shot1_1/img169.jpg,Images/MSR-VTT-videoTestVideo_video8522-shot1_1/img171.jpg,Images/MSR-VTT-videoTestVideo_video8522-shot1_1/img172.jpg,1672,31,0,2022-06-17_09h50.48.427,annotation,2021.2.3,Win32,59.94485074,,
,,,,,,,,,,,,,,,,,0.018055556,-0.203472222,1,0,0,20.0802,image_7,0,21,21,56,1,1299,A person holding a slice of green onion on top of a bowl.,M,0,8,YouCook-video0035-shot7_3,Images/YouCook-video0035-shot7_3/img183.jpg,Images/YouCook-video0035-shot7_3/img186.jpg,Images/YouCook-video0035-shot7_3/img196.jpg,Images/YouCook-video0035-shot7_3/img201.jpg,Images/YouCook-video0035-shot7_3/img205.jpg,Images/YouCook-video0035-shot7_3/img215.jpg,Images/YouCook-video0035-shot7_3/img230.jpg,Images/YouCook-video0035-shot7_3/img234.jpg,Images/YouCook-video0035-shot7_3/img246.jpg,Images/YouCook-video0035-shot7_3/img248.jpg,1921,31,0,2022-06-17_09h50.48.427,annotation,2021.2.3,Win32,59.94485074,,
,,,,,,,,,,,,,,,,,0.4875,0.090972222,1,0,0,24.629,image_4,0,22,22,7,1,1247,a couple of books and a bag of peanut butter.,M,0,6,MSR-VTT-videoTestVideo_video9053-shot1_8,Images/MSR-VTT-videoTestVideo_video9053-shot1_8/img370.jpg,Images/MSR-VTT-videoTestVideo_video9053-shot1_8/img371.jpg,Images/MSR-VTT-videoTestVideo_video9053-shot1_8/img376.jpg,Images/MSR-VTT-videoTestVideo_video9053-shot1_8/img379.jpg,Images/MSR-VTT-videoTestVideo_video9053-shot1_8/img381.jpg,Images/MSR-VTT-videoTestVideo_video9053-shot1_8/img383.jpg,Images/MSR-VTT-videoTestVideo_video9053-shot1_8/img386.jpg,Images/MSR-VTT-videoTestVideo_video9053-shot1_8/img388.jpg,Images/MSR-VTT-videoTestVideo_video9053-shot1_8/img391.jpg,Images/MSR-VTT-videoTestVideo_video9053-shot1_8/img394.jpg,326,31,0,2022-06-17_09h50.48.427,annotation,2021.2.3,Win32,59.94485074,,
,,,,,,,,,,,,,,,,,0.483333333,0.079861111,1,0,0,11.3318,image_4,0,23,23,33,1,1604,A man and a woman standing next to each other.,M,0,1,video-storytelling-videowedding_de8dLXvgV-I-shot139_0,Images/video-storytelling-videowedding_de8dLXvgV-I-shot139_0/img0.jpg,Images/video-storytelling-videowedding_de8dLXvgV-I-shot139_0/img19.jpg,Images/video-storytelling-videowedding_de8dLXvgV-I-shot139_0/img120.jpg,Images/video-storytelling-videowedding_de8dLXvgV-I-shot139_0/img144.jpg,Images/video-storytelling-videowedding_de8dLXvgV-I-shot139_0/img213.jpg,Images/video-storytelling-videowedding_de8dLXvgV-I-shot139_0/img226.jpg,Images/video-storytelling-videowedding_de8dLXvgV-I-shot139_0/img251.jpg,Images/video-storytelling-videowedding_de8dLXvgV-I-shot139_0/img272.jpg,Images/video-storytelling-videowedding_de8dLXvgV-I-shot139_0/img285.jpg,Images/video-storytelling-videowedding_de8dLXvgV-I-shot139_0/img300.jpg,1073,31,0,2022-06-17_09h50.48.427,annotation,2021.2.3,Win32,59.94485074,,
,,,,,,,,,,,,,,,,,-0.511111111,-0.204861111,1,0,0,19.1632,image_5,0,24,24,36,1,1382,A little boy with a baseball bat standing next to a little boy.,M,0,7,video-storytelling-videobirthday__amwPjAcoC8-shot48_0,Images/video-storytelling-videobirthday__amwPjAcoC8-shot48_0/img0.jpg,Images/video-storytelling-videobirthday__amwPjAcoC8-shot48_0/img3.jpg,Images/video-storytelling-videobirthday__amwPjAcoC8-shot48_0/img5.jpg,Images/video-storytelling-videobirthday__amwPjAcoC8-shot48_0/img6.jpg,Images/video-storytelling-videobirthday__amwPjAcoC8-shot48_0/img8.jpg,Images/video-storytelling-videobirthday__amwPjAcoC8-shot48_0/img11.jpg,Images/video-storytelling-videobirthday__amwPjAcoC8-shot48_0/img15.jpg,Images/video-storytelling-videobirthday__amwPjAcoC8-shot48_0/img18.jpg,Images/video-storytelling-videobirthday__amwPjAcoC8-shot48_0/img20.jpg,Images/video-storytelling-videobirthday__amwPjAcoC8-shot48_0/img24.jpg,1986,31,0,2022-06-17_09h50.48.427,annotation,2021.2.3,Win32,59.94485074,,
,,,,,,,,,,,,,,,,,0.034027778,0.085416667,1,0,0,15.5305,image_2,0,25,25,41,1,1864,A room full of people with chairs in front of them.,M,0,4,MSR-VTT-videoTestVideo_video7476-shot1_6,Images/MSR-VTT-videoTestVideo_video7476-shot1_6/img211.jpg,Images/MSR-VTT-videoTestVideo_video7476-shot1_6/img213.jpg,Images/MSR-VTT-videoTestVideo_video7476-shot1_6/img215.jpg,Images/MSR-VTT-videoTestVideo_video7476-shot1_6/img218.jpg,Images/MSR-VTT-videoTestVideo_video7476-shot1_6/img222.jpg,Images/MSR-VTT-videoTestVideo_video7476-shot1_6/img225.jpg,Images/MSR-VTT-videoTestVideo_video7476-shot1_6/img228.jpg,Images/MSR-VTT-videoTestVideo_video7476-shot1_6/img233.jpg,Images/MSR-VTT-videoTestVideo_video7476-shot1_6/img236.jpg,Images/MSR-VTT-videoTestVideo_video7476-shot1_6/img238.jpg,129,31,0,2022-06-17_09h50.48.427,annotation,2021.2.3,Win32,59.94485074,,
,,,,,,,,,,,,,,,,,-0.263888889,0.102083333,1,0,0,5.2325,image_1,0,26,26,62,1,4,A penguin holding a piece of paper with text on it. ,H,,1,open-images-2521_074d6af730ed17a6,Checks/check5/open-images-509_4d8bd994cb8c6eaeimg0.jpg,Checks/check5/open-images-2521_074d6af730ed17a6img1.jpg,Checks/check5/open-images-1365_a00a5fde334ae45aimg4.jpg,Checks/check5/open-images-1602_44092afdeab39e73img6.jpg,Checks/check5/open-images-1032_059f3cdfb85ee0ceimg3.jpg,Checks/check5/open-images-727_25b77fff36adba66img2.jpg,Checks/check5/open-images-2208_0fb92b9978d98575img2.jpg,Checks/check5/open-images-1305_05769e6abb16fdc8img9.jpg,Checks/check5/open-images-2676_052dbf7b4899430bimg1.jpg,Checks/check5/open-images-2569_1e81d79bb796a2dbimg7.jpg,,,1,2022-06-17_09h50.48.427,annotation,2021.2.3,Win32,59.94485074,,
,,,,,,,,,,,,,,,,,0.260416667,0.072222222,1,0,0,20.1459,image_3,0,27,27,3,1,690,The dalmation like costumed character has their left arm lifted and the end of their nose is obscured by their left white hand.,H,0,3,video-storytelling-videobirthday__amwPjAcoC8-shot17_0,Images/video-storytelling-videobirthday__amwPjAcoC8-shot17_0/img0.jpg,Images/video-storytelling-videobirthday__amwPjAcoC8-shot17_0/img2.jpg,Images/video-storytelling-videobirthday__amwPjAcoC8-shot17_0/img8.jpg,Images/video-storytelling-videobirthday__amwPjAcoC8-shot17_0/img12.jpg,Images/video-storytelling-videobirthday__amwPjAcoC8-shot17_0/img19.jpg,Images/video-storytelling-videobirthday__amwPjAcoC8-shot17_0/img22.jpg,Images/video-storytelling-videobirthday__amwPjAcoC8-shot17_0/img28.jpg,Images/video-storytelling-videobirthday__amwPjAcoC8-shot17_0/img52.jpg,Images/video-storytelling-videobirthday__amwPjAcoC8-shot17_0/img55.jpg,Images/video-storytelling-videobirthday__amwPjAcoC8-shot17_0/img66.jpg,591,31,0,2022-06-17_09h50.48.427,annotation,2021.2.3,Win32,59.94485074,,
,,,,,,,,,,,,,,,,,-0.444444444,0.075,1,0,0,18.2299,image_0,0,28,28,50,1,935,"The knife is cutting into the meat with just one thumb's nail visible, the other finger's nail is not.",H,0,6,MSR-VTT-videoTestVideo_video9525-shot1_1,Images/MSR-VTT-videoTestVideo_video9525-shot1_1/img65.jpg,Images/MSR-VTT-videoTestVideo_video9525-shot1_1/img77.jpg,Images/MSR-VTT-videoTestVideo_video9525-shot1_1/img83.jpg,Images/MSR-VTT-videoTestVideo_video9525-shot1_1/img84.jpg,Images/MSR-VTT-videoTestVideo_video9525-shot1_1/img92.jpg,Images/MSR-VTT-videoTestVideo_video9525-shot1_1/img124.jpg,Images/MSR-VTT-videoTestVideo_video9525-shot1_1/img154.jpg,Images/MSR-VTT-videoTestVideo_video9525-shot1_1/img158.jpg,Images/MSR-VTT-videoTestVideo_video9525-shot1_1/img186.jpg,Images/MSR-VTT-videoTestVideo_video9525-shot1_1/img207.jpg,715,31,0,2022-06-17_09h50.48.427,annotation,2021.2.3,Win32,59.94485074,,
,,,,,,,,,,,,,,,,,0.002083333,-0.135416667,1,0,0,15.6143,image_7,0,29,29,12,1,1988,A person holding a bottle of water to a dog.,M,1,0,MSR-VTT-videoTestVideo_video8282-shot1_1,Images/MSR-VTT-videoTestVideo_video8282-shot1_1/img21.jpg,Images/MSR-VTT-videoTestVideo_video8282-shot1_1/img22.jpg,Images/MSR-VTT-videoTestVideo_video8282-shot1_1/img25.jpg,Images/MSR-VTT-videoTestVideo_video8282-shot1_1/img27.jpg,Images/MSR-VTT-videoTestVideo_video8282-shot1_1/img30.jpg,Images/MSR-VTT-videoTestVideo_video8282-shot1_1/img31.jpg,Images/MSR-VTT-videoTestVideo_video8282-shot1_1/img33.jpg,Images/MSR-VTT-videoTestVideo_video8282-shot1_1/img36.jpg,Images/MSR-VTT-videoTestVideo_video8282-shot1_1/img37.jpg,Images/MSR-VTT-videoTestVideo_video8282-shot1_1/img39.jpg,202,31,0,2022-06-17_09h50.48.427,annotation,2021.2.3,Win32,59.94485074,,
,,,,,,,,,,,,,,,,,-0.21875,-0.160416667,1,0,0,10.1982,image_6,0,30,30,27,1,823,The tallest man at the top of the group only has his chin shown.,H,0,6,MSR-VTT-videoTestVideo_video8209-shot1_0,Images/MSR-VTT-videoTestVideo_video8209-shot1_0/img0.jpg,Images/MSR-VTT-videoTestVideo_video8209-shot1_0/img6.jpg,Images/MSR-VTT-videoTestVideo_video8209-shot1_0/img7.jpg,Images/MSR-VTT-videoTestVideo_video8209-shot1_0/img11.jpg,Images/MSR-VTT-videoTestVideo_video8209-shot1_0/img15.jpg,Images/MSR-VTT-videoTestVideo_video8209-shot1_0/img18.jpg,Images/MSR-VTT-videoTestVideo_video8209-shot1_0/img21.jpg,Images/MSR-VTT-videoTestVideo_video8209-shot1_0/img25.jpg,Images/MSR-VTT-videoTestVideo_video8209-shot1_0/img41.jpg,Images/MSR-VTT-videoTestVideo_video8209-shot1_0/img130.jpg,1130,31,0,2022-06-17_09h50.48.427,annotation,2021.2.3,Win32,59.94485074,,
,,,,,,,,,,,,,,,,,-0.256944444,-0.156944444,1,0,0,10.1483,image_6,0,31,31,23,1,1124,A couple of books on a shelf next to each other.,M,0,8,MSR-VTT-videoTestVideo_video9053-shot1_7,Images/MSR-VTT-videoTestVideo_video9053-shot1_7/img321.jpg,Images/MSR-VTT-videoTestVideo_video9053-shot1_7/img324.jpg,Images/MSR-VTT-videoTestVideo_video9053-shot1_7/img330.jpg,Images/MSR-VTT-videoTestVideo_video9053-shot1_7/img344.jpg,Images/MSR-VTT-videoTestVideo_video9053-shot1_7/img354.jpg,Images/MSR-VTT-videoTestVideo_video9053-shot1_7/img357.jpg,Images/MSR-VTT-videoTestVideo_video9053-shot1_7/img362.jpg,Images/MSR-VTT-videoTestVideo_video9053-shot1_7/img365.jpg,Images/MSR-VTT-videoTestVideo_video9053-shot1_7/img367.jpg,Images/MSR-VTT-videoTestVideo_video9053-shot1_7/img369.jpg,2057,31,0,2022-06-17_09h50.48.427,annotation,2021.2.3,Win32,59.94485074,,
,,,,,,,,,,,,,,,,,0.007638889,0.099305556,1,0,0,12.4809,image_2,0,32,32,22,1,152,The man's face is not visible at all. The woman's mouth is fully visible.,H,1,2,MSR-VTT-videoTestVideo_video9926-shot1_2,Images/MSR-VTT-videoTestVideo_video9926-shot1_2/img161.jpg,Images/MSR-VTT-videoTestVideo_video9926-shot1_2/img169.jpg,Images/MSR-VTT-videoTestVideo_video9926-shot1_2/img172.jpg,Images/MSR-VTT-videoTestVideo_video9926-shot1_2/img179.jpg,Images/MSR-VTT-videoTestVideo_video9926-shot1_2/img183.jpg,Images/MSR-VTT-videoTestVideo_video9926-shot1_2/img190.jpg,Images/MSR-VTT-videoTestVideo_video9926-shot1_2/img206.jpg,Images/MSR-VTT-videoTestVideo_video9926-shot1_2/img212.jpg,Images/MSR-VTT-videoTestVideo_video9926-shot1_2/img222.jpg,Images/MSR-VTT-videoTestVideo_video9926-shot1_2/img232.jpg,309,31,0,2022-06-17_09h50.48.427,annotation,2021.2.3,Win32,59.94485074,,
,,,,,,,,,,,,,,,,,-0.2125,-0.168055556,1,0,0,13.5477,image_6,0,33,33,11,1,1915,A woman standing in front of a plate of food.,M,1,1,YouCook-video0098-shot1_0,Images/YouCook-video0098-shot1_0/img0.jpg,Images/YouCook-video0098-shot1_0/img24.jpg,Images/YouCook-video0098-shot1_0/img106.jpg,Images/YouCook-video0098-shot1_0/img132.jpg,Images/YouCook-video0098-shot1_0/img137.jpg,Images/YouCook-video0098-shot1_0/img139.jpg,Images/YouCook-video0098-shot1_0/img149.jpg,Images/YouCook-video0098-shot1_0/img170.jpg,Images/YouCook-video0098-shot1_0/img191.jpg,Images/YouCook-video0098-shot1_0/img201.jpg,2029,31,0,2022-06-17_09h50.48.427,annotation,2021.2.3,Win32,59.94485074,,
,,,,,,,,,,,,,,,,,0.263888889,0.086805556,1,0,0,9.0817,image_3,0,34,34,21,1,1197,A young boy standing in front of a Christmas tree.,M,0,1,video-storytelling-videochristmas_5RR_sRzKODA-shot20_12,Images/video-storytelling-videochristmas_5RR_sRzKODA-shot20_12/img596.jpg,Images/video-storytelling-videochristmas_5RR_sRzKODA-shot20_12/img601.jpg,Images/video-storytelling-videochristmas_5RR_sRzKODA-shot20_12/img608.jpg,Images/video-storytelling-videochristmas_5RR_sRzKODA-shot20_12/img611.jpg,Images/video-storytelling-videochristmas_5RR_sRzKODA-shot20_12/img612.jpg,Images/video-storytelling-videochristmas_5RR_sRzKODA-shot20_12/img614.jpg,Images/video-storytelling-videochristmas_5RR_sRzKODA-shot20_12/img618.jpg,Images/video-storytelling-videochristmas_5RR_sRzKODA-shot20_12/img621.jpg,Images/video-storytelling-videochristmas_5RR_sRzKODA-shot20_12/img626.jpg,Images/video-storytelling-videochristmas_5RR_sRzKODA-shot20_12/img632.jpg,833,31,0,2022-06-17_09h50.48.427,annotation,2021.2.3,Win32,59.94485074,,
,,,,,,,,,,,,,,,,,-0.500694444,-0.195138889,1,0,0,24.3791,image_5,0,35,35,17,1,1013,The spoon is in the bowl and scooped up an egg yolk. The sausage piece is lifted up slightly but the spoon isn't lifted out of the bowl yet. A hand is pinching the edge of the bowl.,H,0,5,MSR-VTT-videoTestVideo_video9631-shot1_2,Images/MSR-VTT-videoTestVideo_video9631-shot1_2/img456.jpg,Images/MSR-VTT-videoTestVideo_video9631-shot1_2/img463.jpg,Images/MSR-VTT-videoTestVideo_video9631-shot1_2/img477.jpg,Images/MSR-VTT-videoTestVideo_video9631-shot1_2/img522.jpg,Images/MSR-VTT-videoTestVideo_video9631-shot1_2/img538.jpg,Images/MSR-VTT-videoTestVideo_video9631-shot1_2/img584.jpg,Images/MSR-VTT-videoTestVideo_video9631-shot1_2/img592.jpg,Images/MSR-VTT-videoTestVideo_video9631-shot1_2/img612.jpg,Images/MSR-VTT-videoTestVideo_video9631-shot1_2/img631.jpg,Images/MSR-VTT-videoTestVideo_video9631-shot1_2/img648.jpg,716,31,0,2022-06-17_09h50.48.427,annotation,2021.2.3,Win32,59.94485074,,
,,,,,,,,,,,,,,,,,0.521527778,-0.202083333,1,0,0,19.617,image_9,0,36,36,54,1,1512,A woman holding a bunch of green vegetables on a kitchen counter.,M,0,6,YouCook-video0016-shot3_4,Images/YouCook-video0016-shot3_4/img653.jpg,Images/YouCook-video0016-shot3_4/img656.jpg,Images/YouCook-video0016-shot3_4/img658.jpg,Images/YouCook-video0016-shot3_4/img671.jpg,Images/YouCook-video0016-shot3_4/img685.jpg,Images/YouCook-video0016-shot3_4/img706.jpg,Images/YouCook-video0016-shot3_4/img710.jpg,Images/YouCook-video0016-shot3_4/img713.jpg,Images/YouCook-video0016-shot3_4/img726.jpg,Images/YouCook-video0016-shot3_4/img730.jpg,1256,31,0,2022-06-17_09h50.48.427,annotation,2021.2.3,Win32,59.94485074,,
,,,,,,,,,,,,,,,,,0.024305556,0.1125,1,0,0,2.383,image_2,0,37,37,61,1,3,A grey elephant with golden leaves on it. ,H,,2,open-images-1745_0ed62fe71809b2f5,Checks/check4/open-images-2609_3f72daeb23764ecfimg6.jpg,Checks/check4/open-images-1928_60679e2899870e08img1.jpg,Checks/check4/open-images-1745_0ed62fe71809b2f5img2.jpg,Checks/check4/open-images-1811_9ae6351c7f7565edimg0.jpg,Checks/check4/open-images-1721_6f04da11945ea492img3.jpg,Checks/check4/open-images-1907_5f9be3e4ea5e22c7img2.jpg,Checks/check4/open-images-580_0ddffb9c25141999img1.jpg,Checks/check4/open-images-2924_0645dcbcf998fed9img3.jpg,Checks/check4/open-images-869_856ecbcb5faf76e3img8.jpg,Checks/check4/open-images-250_02039517e63a91fbimg1.jpg,,,1,2022-06-17_09h50.48.427,annotation,2021.2.3,Win32,59.94485074,,
,,,,,,,,,,,,,,,,,-0.497916667,-0.125694444,1,0,0,4.7327,image_5,0,38,38,6,1,1933,A group of people walking down a crowded street.,M,1,6,MSR-VTT-videoTestVideo_video7256-shot0_0,Images/MSR-VTT-videoTestVideo_video7256-shot0_0/img0.jpg,Images/MSR-VTT-videoTestVideo_video7256-shot0_0/img4.jpg,Images/MSR-VTT-videoTestVideo_video7256-shot0_0/img7.jpg,Images/MSR-VTT-videoTestVideo_video7256-shot0_0/img10.jpg,Images/MSR-VTT-videoTestVideo_video7256-shot0_0/img13.jpg,Images/MSR-VTT-videoTestVideo_video7256-shot0_0/img20.jpg,Images/MSR-VTT-videoTestVideo_video7256-shot0_0/img29.jpg,Images/MSR-VTT-videoTestVideo_video7256-shot0_0/img31.jpg,Images/MSR-VTT-videoTestVideo_video7256-shot0_0/img33.jpg,Images/MSR-VTT-videoTestVideo_video7256-shot0_0/img37.jpg,1136,31,0,2022-06-17_09h50.48.427,annotation,2021.2.3,Win32,59.94485074,,
,,,,,,,,,,,,,,,,,-0.016666667,0.096527778,1,0,0,12.7643,image_2,0,39,39,2,1,1772,A person is holding a camera up to their head.,M,0,1,MSR-VTT-videoTestVideo_video7686-shot3_0,Images/MSR-VTT-videoTestVideo_video7686-shot3_0/img0.jpg,Images/MSR-VTT-videoTestVideo_video7686-shot3_0/img1.jpg,Images/MSR-VTT-videoTestVideo_video7686-shot3_0/img2.jpg,Images/MSR-VTT-videoTestVideo_video7686-shot3_0/img4.jpg,Images/MSR-VTT-videoTestVideo_video7686-shot3_0/img5.jpg,Images/MSR-VTT-videoTestVideo_video7686-shot3_0/img7.jpg,Images/MSR-VTT-videoTestVideo_video7686-shot3_0/img9.jpg,Images/MSR-VTT-videoTestVideo_video7686-shot3_0/img12.jpg,Images/MSR-VTT-videoTestVideo_video7686-shot3_0/img13.jpg,Images/MSR-VTT-videoTestVideo_video7686-shot3_0/img15.jpg,866,31,0,2022-06-17_09h50.48.427,annotation,2021.2.3,Win32,59.94485074,,
,,,,,,,,,,,,,,,,,0.497916667,0.089583333,1,0,0,14.4973,image_4,0,40,40,18,1,1490,A little boy is trying to get his hands on a cell phone.,M,0,1,video-storytelling-videobirthday__amwPjAcoC8-shot48_2,Images/video-storytelling-videobirthday__amwPjAcoC8-shot48_2/img62.jpg,Images/video-storytelling-videobirthday__amwPjAcoC8-shot48_2/img66.jpg,Images/video-storytelling-videobirthday__amwPjAcoC8-shot48_2/img68.jpg,Images/video-storytelling-videobirthday__amwPjAcoC8-shot48_2/img72.jpg,Images/video-storytelling-videobirthday__amwPjAcoC8-shot48_2/img75.jpg,Images/video-storytelling-videobirthday__amwPjAcoC8-shot48_2/img77.jpg,Images/video-storytelling-videobirthday__amwPjAcoC8-shot48_2/img78.jpg,Images/video-storytelling-videobirthday__amwPjAcoC8-shot48_2/img80.jpg,Images/video-storytelling-videobirthday__amwPjAcoC8-shot48_2/img81.jpg,Images/video-storytelling-videobirthday__amwPjAcoC8-shot48_2/img84.jpg,498,31,0,2022-06-17_09h50.48.427,annotation,2021.2.3,Win32,59.94485074,,
,,,,,,,,,,,,,,,,,-0.270833333,0.086805556,1,0,0,8.7651,image_1,0,41,41,49,1,40,The white substance has not been poured yet and the index finger is prominent.,H,0,1,YouCook-video0036-shot0_0,Images/YouCook-video0036-shot0_0/img0.jpg,Images/YouCook-video0036-shot0_0/img21.jpg,Images/YouCook-video0036-shot0_0/img49.jpg,Images/YouCook-video0036-shot0_0/img111.jpg,Images/YouCook-video0036-shot0_0/img116.jpg,Images/YouCook-video0036-shot0_0/img220.jpg,Images/YouCook-video0036-shot0_0/img241.jpg,Images/YouCook-video0036-shot0_0/img247.jpg,Images/YouCook-video0036-shot0_0/img270.jpg,Images/YouCook-video0036-shot0_0/img288.jpg,1522,31,0,2022-06-17_09h50.48.427,annotation,2021.2.3,Win32,59.94485074,,
,,,,,,,,,,,,,,,,,0.454861111,0.083333333,1,0,0,34.8938,image_4,0,42,42,35,1,843,The girl's right ear is visible. There's a small space between that ear and the edge of the left black border. The flyaway hair on her bangs is against the left black border. She is facing and looking at us.,H,0,4,MSR-VTT-videoTestVideo_video9189-shot3_0,Images/MSR-VTT-videoTestVideo_video9189-shot3_0/img0.jpg,Images/MSR-VTT-videoTestVideo_video9189-shot3_0/img3.jpg,Images/MSR-VTT-videoTestVideo_video9189-shot3_0/img11.jpg,Images/MSR-VTT-videoTestVideo_video9189-shot3_0/img15.jpg,Images/MSR-VTT-videoTestVideo_video9189-shot3_0/img22.jpg,Images/MSR-VTT-videoTestVideo_video9189-shot3_0/img24.jpg,Images/MSR-VTT-videoTestVideo_video9189-shot3_0/img32.jpg,Images/MSR-VTT-videoTestVideo_video9189-shot3_0/img35.jpg,Images/MSR-VTT-videoTestVideo_video9189-shot3_0/img39.jpg,Images/MSR-VTT-videoTestVideo_video9189-shot3_0/img45.jpg,318,31,0,2022-06-17_09h50.48.427,annotation,2021.2.3,Win32,59.94485074,,
,,,,,,,,,,,,,,,,,0.238888889,-0.118055556,1,0,0,8.9485,image_8,0,43,43,46,1,1867,A group of people standing next to each other.,M,0,6,MSR-VTT-videoTestVideo_video8209-shot1_0,Images/MSR-VTT-videoTestVideo_video8209-shot1_0/img0.jpg,Images/MSR-VTT-videoTestVideo_video8209-shot1_0/img6.jpg,Images/MSR-VTT-videoTestVideo_video8209-shot1_0/img7.jpg,Images/MSR-VTT-videoTestVideo_video8209-shot1_0/img11.jpg,Images/MSR-VTT-videoTestVideo_video8209-shot1_0/img15.jpg,Images/MSR-VTT-videoTestVideo_video8209-shot1_0/img18.jpg,Images/MSR-VTT-videoTestVideo_video8209-shot1_0/img21.jpg,Images/MSR-VTT-videoTestVideo_video8209-shot1_0/img25.jpg,Images/MSR-VTT-videoTestVideo_video8209-shot1_0/img41.jpg,Images/MSR-VTT-videoTestVideo_video8209-shot1_0/img130.jpg,1451,31,0,2022-06-17_09h50.48.427,annotation,2021.2.3,Win32,59.94485074,,
,,,,,,,,,,,,,,,,,0.519444444,0.078472222,1,0,0,12.1813,image_4,0,44,44,48,1,375,The person is holding a knife with one hand and a crab claw in the other.  The person is bringing the knife up off of the claw for another try. ,H,1,4,MSR-VTT-videoTestVideo_video9687-shot0_0,Images/MSR-VTT-videoTestVideo_video9687-shot0_0/img0.jpg,Images/MSR-VTT-videoTestVideo_video9687-shot0_0/img8.jpg,Images/MSR-VTT-videoTestVideo_video9687-shot0_0/img9.jpg,Images/MSR-VTT-videoTestVideo_video9687-shot0_0/img11.jpg,Images/MSR-VTT-videoTestVideo_video9687-shot0_0/img14.jpg,Images/MSR-VTT-videoTestVideo_video9687-shot0_0/img20.jpg,Images/MSR-VTT-videoTestVideo_video9687-shot0_0/img21.jpg,Images/MSR-VTT-videoTestVideo_video9687-shot0_0/img31.jpg,Images/MSR-VTT-videoTestVideo_video9687-shot0_0/img33.jpg,Images/MSR-VTT-videoTestVideo_video9687-shot0_0/img35.jpg,786,31,0,2022-06-17_09h50.48.427,annotation,2021.2.3,Win32,59.94485074,,
,,,,,,,,,,,,,,,,,-0.206944444,0.064583333,1,0,0,13.1146,image_1,0,45,45,53,1,1707,A woman standing next to a purple belt.,M,0,6,MSR-VTT-videoTestVideo_video7510-shot1_1,Images/MSR-VTT-videoTestVideo_video7510-shot1_1/img152.jpg,Images/MSR-VTT-videoTestVideo_video7510-shot1_1/img153.jpg,Images/MSR-VTT-videoTestVideo_video7510-shot1_1/img155.jpg,Images/MSR-VTT-videoTestVideo_video7510-shot1_1/img157.jpg,Images/MSR-VTT-videoTestVideo_video7510-shot1_1/img161.jpg,Images/MSR-VTT-videoTestVideo_video7510-shot1_1/img163.jpg,Images/MSR-VTT-videoTestVideo_video7510-shot1_1/img168.jpg,Images/MSR-VTT-videoTestVideo_video7510-shot1_1/img174.jpg,Images/MSR-VTT-videoTestVideo_video7510-shot1_1/img182.jpg,Images/MSR-VTT-videoTestVideo_video7510-shot1_1/img185.jpg,2073,31,0,2022-06-17_09h50.48.427,annotation,2021.2.3,Win32,59.94485074,,
,,,,,,,,,,,,,,,,,0.040972222,-0.21875,1,0,0,13.231,image_7,0,46,46,42,1,1302,A man standing next to a table full of clothes.,M,0,3,video-storytelling-videocamping_dBXYM3dQTSo-shot69_11,Images/video-storytelling-videocamping_dBXYM3dQTSo-shot69_11/img526.jpg,Images/video-storytelling-videocamping_dBXYM3dQTSo-shot69_11/img532.jpg,Images/video-storytelling-videocamping_dBXYM3dQTSo-shot69_11/img535.jpg,Images/video-storytelling-videocamping_dBXYM3dQTSo-shot69_11/img538.jpg,Images/video-storytelling-videocamping_dBXYM3dQTSo-shot69_11/img541.jpg,Images/video-storytelling-videocamping_dBXYM3dQTSo-shot69_11/img542.jpg,Images/video-storytelling-videocamping_dBXYM3dQTSo-shot69_11/img546.jpg,Images/video-storytelling-videocamping_dBXYM3dQTSo-shot69_11/img548.jpg,Images/video-storytelling-videocamping_dBXYM3dQTSo-shot69_11/img553.jpg,Images/video-storytelling-videocamping_dBXYM3dQTSo-shot69_11/img555.jpg,197,31,0,2022-06-17_09h50.48.427,annotation,2021.2.3,Win32,59.94485074,,
,,,,,,,,,,,,,,,,,-0.059027778,-0.181944444,1,0,0,12.3649,image_7,0,47,47,34,1,436,The rolling pin is resting on the center of the bag,H,0,6,MSR-VTT-videoTestVideo_video9921-shot1_3,Images/MSR-VTT-videoTestVideo_video9921-shot1_3/img277.jpg,Images/MSR-VTT-videoTestVideo_video9921-shot1_3/img278.jpg,Images/MSR-VTT-videoTestVideo_video9921-shot1_3/img279.jpg,Images/MSR-VTT-videoTestVideo_video9921-shot1_3/img281.jpg,Images/MSR-VTT-videoTestVideo_video9921-shot1_3/img282.jpg,Images/MSR-VTT-videoTestVideo_video9921-shot1_3/img284.jpg,Images/MSR-VTT-videoTestVideo_video9921-shot1_3/img287.jpg,Images/MSR-VTT-videoTestVideo_video9921-shot1_3/img290.jpg,Images/MSR-VTT-videoTestVideo_video9921-shot1_3/img297.jpg,Images/MSR-VTT-videoTestVideo_video9921-shot1_3/img309.jpg,1618,31,0,2022-06-17_09h50.48.427,annotation,2021.2.3,Win32,59.94485074,,
,,,,,,,,,,,,,,,,,0.505555556,0.090972222,1,0,0,10.9147,image_4,0,48,48,57,1,45,The player in green has his left arm in the air as he is falling,H,0,4,MSR-VTT-videoTestVideo_video9823-shot3_1,Images/MSR-VTT-videoTestVideo_video9823-shot3_1/img17.jpg,Images/MSR-VTT-videoTestVideo_video9823-shot3_1/img18.jpg,Images/MSR-VTT-videoTestVideo_video9823-shot3_1/img19.jpg,Images/MSR-VTT-videoTestVideo_video9823-shot3_1/img20.jpg,Images/MSR-VTT-videoTestVideo_video9823-shot3_1/img21.jpg,Images/MSR-VTT-videoTestVideo_video9823-shot3_1/img24.jpg,Images/MSR-VTT-videoTestVideo_video9823-shot3_1/img27.jpg,Images/MSR-VTT-videoTestVideo_video9823-shot3_1/img28.jpg,Images/MSR-VTT-videoTestVideo_video9823-shot3_1/img30.jpg,Images/MSR-VTT-videoTestVideo_video9823-shot3_1/img31.jpg,1426,31,0,2022-06-17_09h50.48.427,annotation,2021.2.3,Win32,59.94485074,,
,,,,,,,,,,,,,,,,,-0.493055556,0.116666667,1,0,0,6.6655,image_0,0,49,49,19,1,2025,A man is holding a camera in his hand.,M,0,4,MSR-VTT-videoTestVideo_video8959-shot2_0,Images/MSR-VTT-videoTestVideo_video8959-shot2_0/img0.jpg,Images/MSR-VTT-videoTestVideo_video8959-shot2_0/img5.jpg,Images/MSR-VTT-videoTestVideo_video8959-shot2_0/img10.jpg,Images/MSR-VTT-videoTestVideo_video8959-shot2_0/img13.jpg,Images/MSR-VTT-videoTestVideo_video8959-shot2_0/img16.jpg,Images/MSR-VTT-videoTestVideo_video8959-shot2_0/img24.jpg,Images/MSR-VTT-videoTestVideo_video8959-shot2_0/img26.jpg,Images/MSR-VTT-videoTestVideo_video8959-shot2_0/img28.jpg,Images/MSR-VTT-videoTestVideo_video8959-shot2_0/img30.jpg,Images/MSR-VTT-videoTestVideo_video8959-shot2_0/img37.jpg,824,31,0,2022-06-17_09h50.48.427,annotation,2021.2.3,Win32,59.94485074,,
,,,,,,,,,,,,,,,,,0.024305556,0.110416667,1,0,0,18.4469,image_2,0,50,50,25,1,7,The gray object is not touching any of the text on the bottom.  The woman's left hand is behind the first two words of text. ,H,0,2,MSR-VTT-videoTestVideo_video8282-shot1_1,Images/MSR-VTT-videoTestVideo_video8282-shot1_1/img21.jpg,Images/MSR-VTT-videoTestVideo_video8282-shot1_1/img22.jpg,Images/MSR-VTT-videoTestVideo_video8282-shot1_1/img25.jpg,Images/MSR-VTT-videoTestVideo_video8282-shot1_1/img27.jpg,Images/MSR-VTT-videoTestVideo_video8282-shot1_1/img30.jpg,Images/MSR-VTT-videoTestVideo_video8282-shot1_1/img31.jpg,Images/MSR-VTT-videoTestVideo_video8282-shot1_1/img33.jpg,Images/MSR-VTT-videoTestVideo_video8282-shot1_1/img36.jpg,Images/MSR-VTT-videoTestVideo_video8282-shot1_1/img37.jpg,Images/MSR-VTT-videoTestVideo_video8282-shot1_1/img39.jpg,1617,31,0,2022-06-17_09h50.48.427,annotation,2021.2.3,Win32,59.94485074,,
,,,,,,,,,,,,,,,,,0.463888889,-0.131944444,1,0,0,15.114,image_9,0,51,51,16,1,1130,A person holding a plate of doughnuts on a plate.,M,0,2,video-storytelling-videocamping_dBXYM3dQTSo-shot69_0,Images/video-storytelling-videocamping_dBXYM3dQTSo-shot69_0/img0.jpg,Images/video-storytelling-videocamping_dBXYM3dQTSo-shot69_0/img15.jpg,Images/video-storytelling-videocamping_dBXYM3dQTSo-shot69_0/img29.jpg,Images/video-storytelling-videocamping_dBXYM3dQTSo-shot69_0/img55.jpg,Images/video-storytelling-videocamping_dBXYM3dQTSo-shot69_0/img58.jpg,Images/video-storytelling-videocamping_dBXYM3dQTSo-shot69_0/img63.jpg,Images/video-storytelling-videocamping_dBXYM3dQTSo-shot69_0/img68.jpg,Images/video-storytelling-videocamping_dBXYM3dQTSo-shot69_0/img71.jpg,Images/video-storytelling-videocamping_dBXYM3dQTSo-shot69_0/img86.jpg,Images/video-storytelling-videocamping_dBXYM3dQTSo-shot69_0/img89.jpg,1905,31,0,2022-06-17_09h50.48.427,annotation,2021.2.3,Win32,59.94485074,,
,,,,,,,,,,,,,,,,,-0.284027778,0.113194444,1,0,0,6.3823,image_1,0,52,52,20,1,1872,A dog standing on top of a body of water.,M,1,5,video-storytelling-videocamping_dBXYM3dQTSo-shot42_0,Images/video-storytelling-videocamping_dBXYM3dQTSo-shot42_0/img0.jpg,Images/video-storytelling-videocamping_dBXYM3dQTSo-shot42_0/img10.jpg,Images/video-storytelling-videocamping_dBXYM3dQTSo-shot42_0/img20.jpg,Images/video-storytelling-videocamping_dBXYM3dQTSo-shot42_0/img27.jpg,Images/video-storytelling-videocamping_dBXYM3dQTSo-shot42_0/img35.jpg,Images/video-storytelling-videocamping_dBXYM3dQTSo-shot42_0/img44.jpg,Images/video-storytelling-videocamping_dBXYM3dQTSo-shot42_0/img55.jpg,Images/video-storytelling-videocamping_dBXYM3dQTSo-shot42_0/img58.jpg,Images/video-storytelling-videocamping_dBXYM3dQTSo-shot42_0/img60.jpg,Images/video-storytelling-videocamping_dBXYM3dQTSo-shot42_0/img65.jpg,26,31,0,2022-06-17_09h50.48.427,annotation,2021.2.3,Win32,59.94485074,,
,,,,,,,,,,,,,,,,,0.465972222,0.074305556,1,0,0,16.4804,image_4,0,53,53,47,1,1974,A woman standing next to a man in a pink dress.,M,1,5,MSR-VTT-videoTestVideo_video8037-shot1_0,Images/MSR-VTT-videoTestVideo_video8037-shot1_0/img1.jpg,Images/MSR-VTT-videoTestVideo_video8037-shot1_0/img5.jpg,Images/MSR-VTT-videoTestVideo_video8037-shot1_0/img10.jpg,Images/MSR-VTT-videoTestVideo_video8037-shot1_0/img13.jpg,Images/MSR-VTT-videoTestVideo_video8037-shot1_0/img22.jpg,Images/MSR-VTT-videoTestVideo_video8037-shot1_0/img27.jpg,Images/MSR-VTT-videoTestVideo_video8037-shot1_0/img29.jpg,Images/MSR-VTT-videoTestVideo_video8037-shot1_0/img30.jpg,Images/MSR-VTT-videoTestVideo_video8037-shot1_0/img31.jpg,Images/MSR-VTT-videoTestVideo_video8037-shot1_0/img34.jpg,1145,31,0,2022-06-17_09h50.48.427,annotation,2021.2.3,Win32,59.94485074,,
,,,,,,,,,,,,,,,,,0.022222222,-0.177777778,1,0,0,17.2639,image_7,0,54,54,43,1,439,Straight on view of the four characters. They all have their hands below their waist. You can only see one arm of the one in blue shirt.,H,0,7,MSR-VTT-videoTestVideo_video7109-shot1_0,Images/MSR-VTT-videoTestVideo_video7109-shot1_0/img0.jpg,Images/MSR-VTT-videoTestVideo_video7109-shot1_0/img1.jpg,Images/MSR-VTT-videoTestVideo_video7109-shot1_0/img3.jpg,Images/MSR-VTT-videoTestVideo_video7109-shot1_0/img4.jpg,Images/MSR-VTT-videoTestVideo_video7109-shot1_0/img5.jpg,Images/MSR-VTT-videoTestVideo_video7109-shot1_0/img9.jpg,Images/MSR-VTT-videoTestVideo_video7109-shot1_0/img13.jpg,Images/MSR-VTT-videoTestVideo_video7109-shot1_0/img18.jpg,Images/MSR-VTT-videoTestVideo_video7109-shot1_0/img24.jpg,Images/MSR-VTT-videoTestVideo_video7109-shot1_0/img26.jpg,739,31,0,2022-06-17_09h50.48.427,annotation,2021.2.3,Win32,59.94485074,,
,,,,,,,,,,,,,,,,,0.455555556,0.095833333,1,0,0,10.8152,image_4,0,55,55,8,1,1622,A group of people standing in front of a basketball court.,M,0,3,MSR-VTT-videoTestVideo_video8064-shot5_0,Images/MSR-VTT-videoTestVideo_video8064-shot5_0/img0.jpg,Images/MSR-VTT-videoTestVideo_video8064-shot5_0/img3.jpg,Images/MSR-VTT-videoTestVideo_video8064-shot5_0/img10.jpg,Images/MSR-VTT-videoTestVideo_video8064-shot5_0/img26.jpg,Images/MSR-VTT-videoTestVideo_video8064-shot5_0/img31.jpg,Images/MSR-VTT-videoTestVideo_video8064-shot5_0/img34.jpg,Images/MSR-VTT-videoTestVideo_video8064-shot5_0/img37.jpg,Images/MSR-VTT-videoTestVideo_video8064-shot5_0/img39.jpg,Images/MSR-VTT-videoTestVideo_video8064-shot5_0/img41.jpg,Images/MSR-VTT-videoTestVideo_video8064-shot5_0/img43.jpg,1803,31,0,2022-06-17_09h50.48.427,annotation,2021.2.3,Win32,59.94485074,,
,,,,,,,,,,,,,,,,,0.014583333,-0.214583333,1,0,0,12.0926,image_7,0,56,56,45,1,1288,A little girl playing with a pony on the floor.,M,0,3,video-storytelling-videochristmas_5RR_sRzKODA-shot44_2,Images/video-storytelling-videochristmas_5RR_sRzKODA-shot44_2/img99.jpg,Images/video-storytelling-videochristmas_5RR_sRzKODA-shot44_2/img104.jpg,Images/video-storytelling-videochristmas_5RR_sRzKODA-shot44_2/img108.jpg,Images/video-storytelling-videochristmas_5RR_sRzKODA-shot44_2/img118.jpg,Images/video-storytelling-videochristmas_5RR_sRzKODA-shot44_2/img122.jpg,Images/video-storytelling-videochristmas_5RR_sRzKODA-shot44_2/img126.jpg,Images/video-storytelling-videochristmas_5RR_sRzKODA-shot44_2/img129.jpg,Images/video-storytelling-videochristmas_5RR_sRzKODA-shot44_2/img133.jpg,Images/video-storytelling-videochristmas_5RR_sRzKODA-shot44_2/img136.jpg,Images/video-storytelling-videochristmas_5RR_sRzKODA-shot44_2/img139.jpg,1328,31,0,2022-06-17_09h50.48.427,annotation,2021.2.3,Win32,59.94485074,,
,,,,,,,,,,,,,,,,,0.515277778,-0.159722222,1,0,0,2.5992,image_9,0,57,57,60,1,2,Green type writer with a red tape. ,H,,9,open-images-531_0dd4eb59d465a8be,Checks/check3/open-images-503_1ccd6fa641154ebbimg7.jpg,Checks/check3/open-images-1852_00faf52058ad28b8img4.jpg,Checks/check3/open-images-386_1b2e28d6d994603eimg1.jpg,Checks/check3/open-images-471_1121e9f97c200ac0img8.jpg,Checks/check3/open-images-1886_3db71eaddb618934img8.jpg,Checks/check3/open-images-1696_20a4ebf0c0f76b05img6.jpg,Checks/check3/open-images-2447_128483a48e1552f4img6.jpg,Checks/check3/open-images-2994_9965cbf8aa20bda0img2.jpg,Checks/check3/open-images-1068_03d63613107970b3img6.jpg,Checks/check3/open-images-531_0dd4eb59d465a8beimg9.jpg,,,1,2022-06-17_09h50.48.427,annotation,2021.2.3,Win32,59.94485074,,
,,,,,,,,,,,,,,,,,0.547916667,0.127083333,1,0,0,7.732,image_4,0,58,58,10,1,2041,A man in a red and white suit sits on a bench.,M,0,4,MSR-VTT-videoTestVideo_video9003-shot1_1,Images/MSR-VTT-videoTestVideo_video9003-shot1_1/img28.jpg,Images/MSR-VTT-videoTestVideo_video9003-shot1_1/img34.jpg,Images/MSR-VTT-videoTestVideo_video9003-shot1_1/img37.jpg,Images/MSR-VTT-videoTestVideo_video9003-shot1_1/img41.jpg,Images/MSR-VTT-videoTestVideo_video9003-shot1_1/img43.jpg,Images/MSR-VTT-videoTestVideo_video9003-shot1_1/img45.jpg,Images/MSR-VTT-videoTestVideo_video9003-shot1_1/img46.jpg,Images/MSR-VTT-videoTestVideo_video9003-shot1_1/img47.jpg,Images/MSR-VTT-videoTestVideo_video9003-shot1_1/img48.jpg,Images/MSR-VTT-videoTestVideo_video9003-shot1_1/img49.jpg,983,31,0,2022-06-17_09h50.48.427,annotation,2021.2.3,Win32,59.94485074,,
,,,,,,,,,,,,,,,,,0.01875,0.102777778,1,0,0,9.4651,image_2,0,59,59,5,1,548,A shot of a purple table on a blue floor with another image partially superimposed over it,H,0,3,MSR-VTT-videoTestVideo_video9898-shot1_0,Images/MSR-VTT-videoTestVideo_video9898-shot1_0/img0.jpg,Images/MSR-VTT-videoTestVideo_video9898-shot1_0/img6.jpg,Images/MSR-VTT-videoTestVideo_video9898-shot1_0/img8.jpg,Images/MSR-VTT-videoTestVideo_video9898-shot1_0/img10.jpg,Images/MSR-VTT-videoTestVideo_video9898-shot1_0/img13.jpg,Images/MSR-VTT-videoTestVideo_video9898-shot1_0/img18.jpg,Images/MSR-VTT-videoTestVideo_video9898-shot1_0/img30.jpg,Images/MSR-VTT-videoTestVideo_video9898-shot1_0/img49.jpg,Images/MSR-VTT-videoTestVideo_video9898-shot1_0/img72.jpg,Images/MSR-VTT-videoTestVideo_video9898-shot1_0/img154.jpg,324,31,0,2022-06-17_09h50.48.427,annotation,2021.2.3,Win32,59.94485074,,
,,,,,,,,,,,,,,,,,0.509722222,-0.139583333,1,0,0,8.6988,image_9,0,60,60,14,1,1662,A dog that is standing in front of a fence.,M,0,5,MSR-VTT-videoTestVideo_video7295-shot1_4,Images/MSR-VTT-videoTestVideo_video7295-shot1_4/img60.jpg,Images/MSR-VTT-videoTestVideo_video7295-shot1_4/img62.jpg,Images/MSR-VTT-videoTestVideo_video7295-shot1_4/img63.jpg,Images/MSR-VTT-videoTestVideo_video7295-shot1_4/img65.jpg,Images/MSR-VTT-videoTestVideo_video7295-shot1_4/img67.jpg,Images/MSR-VTT-videoTestVideo_video7295-shot1_4/img68.jpg,Images/MSR-VTT-videoTestVideo_video7295-shot1_4/img69.jpg,Images/MSR-VTT-videoTestVideo_video7295-shot1_4/img70.jpg,Images/MSR-VTT-videoTestVideo_video7295-shot1_4/img71.jpg,Images/MSR-VTT-videoTestVideo_video7295-shot1_4/img72.jpg,1843,31,0,2022-06-17_09h50.48.427,annotation,2021.2.3,Win32,59.94485074,,
,,,,,,,,,,,,,,,,,-0.013888889,0.124305556,1,0,0,9.8815,image_2,0,61,61,40,1,1087,A little boy with a cartoon face eating a plate of food.,M,0,8,video-storytelling-videobirthday__amwPjAcoC8-shot29_0,Images/video-storytelling-videobirthday__amwPjAcoC8-shot29_0/img0.jpg,Images/video-storytelling-videobirthday__amwPjAcoC8-shot29_0/img19.jpg,Images/video-storytelling-videobirthday__amwPjAcoC8-shot29_0/img56.jpg,Images/video-storytelling-videobirthday__amwPjAcoC8-shot29_0/img81.jpg,Images/video-storytelling-videobirthday__amwPjAcoC8-shot29_0/img86.jpg,Images/video-storytelling-videobirthday__amwPjAcoC8-shot29_0/img93.jpg,Images/video-storytelling-videobirthday__amwPjAcoC8-shot29_0/img105.jpg,Images/video-storytelling-videobirthday__amwPjAcoC8-shot29_0/img111.jpg,Images/video-storytelling-videobirthday__amwPjAcoC8-shot29_0/img119.jpg,Images/video-storytelling-videobirthday__amwPjAcoC8-shot29_0/img130.jpg,1713,31,0,2022-06-17_09h50.48.427,annotation,2021.2.3,Win32,59.94485074,,
,,,,,,,,,,,,,,,,,0,0.106944444,1,0,0,16.3801,image_2,0,62,62,1,1,1377,a close up of a person holding a pair of scissors.,M,0,2,MSR-VTT-videoTestVideo_video9235-shot0_0,Images/MSR-VTT-videoTestVideo_video9235-shot0_0/img0.jpg,Images/MSR-VTT-videoTestVideo_video9235-shot0_0/img4.jpg,Images/MSR-VTT-videoTestVideo_video9235-shot0_0/img7.jpg,Images/MSR-VTT-videoTestVideo_video9235-shot0_0/img9.jpg,Images/MSR-VTT-videoTestVideo_video9235-shot0_0/img11.jpg,Images/MSR-VTT-videoTestVideo_video9235-shot0_0/img15.jpg,Images/MSR-VTT-videoTestVideo_video9235-shot0_0/img19.jpg,Images/MSR-VTT-videoTestVideo_video9235-shot0_0/img22.jpg,Images/MSR-VTT-videoTestVideo_video9235-shot0_0/img29.jpg,Images/MSR-VTT-videoTestVideo_video9235-shot0_0/img40.jpg,574,31,0,2022-06-17_09h50.48.427,annotation,2021.2.3,Win32,59.94485074,,
,,,,,,,,,,,,,,,,,,,,,,,,,,,,,,,,,,,,,,,,,,,,,,,,2022-06-17_09h50.48.427,annotation,2021.2.3,Win32,59.94485074,space,16.5415
