mturk,key_resp_2.keys,key_resp_2.rt,key_resp_3.keys,key_resp_3.rt,mouse_2.x,mouse_2.y,mouse_2.leftButton,mouse_2.midButton,mouse_2.rightButton,mouse_2.clicked_name,key_resp_5.keys,key_resp_5.rt,key_resp.keys,key_resp.rt,key_resp_6.keys,key_resp_6.rt,mouse.x,mouse.y,mouse.leftButton,mouse.midButton,mouse.rightButton,mouse.clicked_name,trials.thisRepN,trials.thisTrialN,trials.thisN,trials.thisIndex,trials.ran,N,caption,class_caption,model_guessed,target_idx,image_set,img1,img2,img3,img4,img5,img6,img7,img8,img9,img10,Q_id,block,is_check,date,expName,psychopyVersion,OS,frameRate,key_resp_7.keys,key_resp_7.rt
8790056,space,3.641,space,4.0613,0.223148148,0.10462963,1,0,0,ex4,space,2.254,space,3.3013,space,0.4973,-0.252777778,0.115740741,1,0,0,image_1,0,0,0,6,1,384,You can still just see the dark surface the pink object is resting on as the image moves upward. ,H,0,1,video-storytelling-videowedding_46xhFCXBMJs-shot39_0,Images/video-storytelling-videowedding_46xhFCXBMJs-shot39_0/img0.jpg,Images/video-storytelling-videowedding_46xhFCXBMJs-shot39_0/img23.jpg,Images/video-storytelling-videowedding_46xhFCXBMJs-shot39_0/img59.jpg,Images/video-storytelling-videowedding_46xhFCXBMJs-shot39_0/img83.jpg,Images/video-storytelling-videowedding_46xhFCXBMJs-shot39_0/img96.jpg,Images/video-storytelling-videowedding_46xhFCXBMJs-shot39_0/img101.jpg,Images/video-storytelling-videowedding_46xhFCXBMJs-shot39_0/img120.jpg,Images/video-storytelling-videowedding_46xhFCXBMJs-shot39_0/img125.jpg,Images/video-storytelling-videowedding_46xhFCXBMJs-shot39_0/img129.jpg,Images/video-storytelling-videowedding_46xhFCXBMJs-shot39_0/img135.jpg,1155,16,0,2022-06-15_11h43.13.317,annotation,2021.2.3,Win32,59.99880002,,
,,,,,,,,,,,,,,,,,0.502777778,-0.132407407,1,0,0,image_9,0,1,1,12,1,2044,A man standing in front of a fire hydrant.,M,0,1,video-storytelling-videocamping_dBXYM3dQTSo-shot78_1,Images/video-storytelling-videocamping_dBXYM3dQTSo-shot78_1/img48.jpg,Images/video-storytelling-videocamping_dBXYM3dQTSo-shot78_1/img55.jpg,Images/video-storytelling-videocamping_dBXYM3dQTSo-shot78_1/img60.jpg,Images/video-storytelling-videocamping_dBXYM3dQTSo-shot78_1/img65.jpg,Images/video-storytelling-videocamping_dBXYM3dQTSo-shot78_1/img66.jpg,Images/video-storytelling-videocamping_dBXYM3dQTSo-shot78_1/img71.jpg,Images/video-storytelling-videocamping_dBXYM3dQTSo-shot78_1/img75.jpg,Images/video-storytelling-videocamping_dBXYM3dQTSo-shot78_1/img79.jpg,Images/video-storytelling-videocamping_dBXYM3dQTSo-shot78_1/img80.jpg,Images/video-storytelling-videocamping_dBXYM3dQTSo-shot78_1/img86.jpg,1525,16,0,2022-06-15_11h43.13.317,annotation,2021.2.3,Win32,59.99880002,,
,,,,,,,,,,,,,,,,,-0.513888889,-0.158333333,1,0,0,image_5,0,2,2,9,1,41,The red dog's head is just starting to get cut off on the far right  of the image. ,H,0,4,video-storytelling-videobirthday__amwPjAcoC8-shot61_4,Images/video-storytelling-videobirthday__amwPjAcoC8-shot61_4/img133.jpg,Images/video-storytelling-videobirthday__amwPjAcoC8-shot61_4/img135.jpg,Images/video-storytelling-videobirthday__amwPjAcoC8-shot61_4/img138.jpg,Images/video-storytelling-videobirthday__amwPjAcoC8-shot61_4/img140.jpg,Images/video-storytelling-videobirthday__amwPjAcoC8-shot61_4/img142.jpg,Images/video-storytelling-videobirthday__amwPjAcoC8-shot61_4/img143.jpg,Images/video-storytelling-videobirthday__amwPjAcoC8-shot61_4/img145.jpg,Images/video-storytelling-videobirthday__amwPjAcoC8-shot61_4/img146.jpg,Images/video-storytelling-videobirthday__amwPjAcoC8-shot61_4/img147.jpg,Images/video-storytelling-videobirthday__amwPjAcoC8-shot61_4/img148.jpg,455,16,0,2022-06-15_11h43.13.317,annotation,2021.2.3,Win32,59.99880002,,
,,,,,,,,,,,,,,,,,-0.012037037,0.121296296,1,0,0,image_2,0,3,3,45,1,2005,A child playing with a baseball bat in a pool.,M,1,5,video-storytelling-videobirthday__amwPjAcoC8-shot61_22,Images/video-storytelling-videobirthday__amwPjAcoC8-shot61_22/img512.jpg,Images/video-storytelling-videobirthday__amwPjAcoC8-shot61_22/img515.jpg,Images/video-storytelling-videobirthday__amwPjAcoC8-shot61_22/img521.jpg,Images/video-storytelling-videobirthday__amwPjAcoC8-shot61_22/img522.jpg,Images/video-storytelling-videobirthday__amwPjAcoC8-shot61_22/img525.jpg,Images/video-storytelling-videobirthday__amwPjAcoC8-shot61_22/img528.jpg,Images/video-storytelling-videobirthday__amwPjAcoC8-shot61_22/img529.jpg,Images/video-storytelling-videobirthday__amwPjAcoC8-shot61_22/img534.jpg,Images/video-storytelling-videobirthday__amwPjAcoC8-shot61_22/img541.jpg,Images/video-storytelling-videobirthday__amwPjAcoC8-shot61_22/img545.jpg,523,16,0,2022-06-15_11h43.13.317,annotation,2021.2.3,Win32,59.99880002,,
,,,,,,,,,,,,,,,,,0.509259259,-0.17037037,1,0,0,image_9,0,4,4,0,1,1912,A man walking around with a frisbee in his hand.,M,0,2,MSR-VTT-videoTestVideo_video9543-shot1_13,Images/MSR-VTT-videoTestVideo_video9543-shot1_13/img544.jpg,Images/MSR-VTT-videoTestVideo_video9543-shot1_13/img547.jpg,Images/MSR-VTT-videoTestVideo_video9543-shot1_13/img550.jpg,Images/MSR-VTT-videoTestVideo_video9543-shot1_13/img552.jpg,Images/MSR-VTT-videoTestVideo_video9543-shot1_13/img556.jpg,Images/MSR-VTT-videoTestVideo_video9543-shot1_13/img561.jpg,Images/MSR-VTT-videoTestVideo_video9543-shot1_13/img565.jpg,Images/MSR-VTT-videoTestVideo_video9543-shot1_13/img571.jpg,Images/MSR-VTT-videoTestVideo_video9543-shot1_13/img573.jpg,Images/MSR-VTT-videoTestVideo_video9543-shot1_13/img576.jpg,548,16,0,2022-06-15_11h43.13.317,annotation,2021.2.3,Win32,59.99880002,,
,,,,,,,,,,,,,,,,,0.040740741,0.119444444,1,0,0,image_2,0,5,5,46,1,149,Only one green stripe on the salt shaker behind the plated food can be seen. ,H,0,2,video-storytelling-videobirthday_fwpYnUDbusw-shot17_0,Images/video-storytelling-videobirthday_fwpYnUDbusw-shot17_0/img0.jpg,Images/video-storytelling-videobirthday_fwpYnUDbusw-shot17_0/img3.jpg,Images/video-storytelling-videobirthday_fwpYnUDbusw-shot17_0/img11.jpg,Images/video-storytelling-videobirthday_fwpYnUDbusw-shot17_0/img14.jpg,Images/video-storytelling-videobirthday_fwpYnUDbusw-shot17_0/img18.jpg,Images/video-storytelling-videobirthday_fwpYnUDbusw-shot17_0/img23.jpg,Images/video-storytelling-videobirthday_fwpYnUDbusw-shot17_0/img26.jpg,Images/video-storytelling-videobirthday_fwpYnUDbusw-shot17_0/img29.jpg,Images/video-storytelling-videobirthday_fwpYnUDbusw-shot17_0/img30.jpg,Images/video-storytelling-videobirthday_fwpYnUDbusw-shot17_0/img33.jpg,217,16,0,2022-06-15_11h43.13.317,annotation,2021.2.3,Win32,59.99880002,,
,,,,,,,,,,,,,,,,,-0.237037037,-0.137037037,1,0,0,image_6,0,6,6,43,1,784,The person in the center has their arms up over their head in a Y shape.  His mouth is wide open. ,H,0,6,MSR-VTT-videoTestVideo_video9044-shot1_0,Images/MSR-VTT-videoTestVideo_video9044-shot1_0/img0.jpg,Images/MSR-VTT-videoTestVideo_video9044-shot1_0/img3.jpg,Images/MSR-VTT-videoTestVideo_video9044-shot1_0/img6.jpg,Images/MSR-VTT-videoTestVideo_video9044-shot1_0/img8.jpg,Images/MSR-VTT-videoTestVideo_video9044-shot1_0/img11.jpg,Images/MSR-VTT-videoTestVideo_video9044-shot1_0/img15.jpg,Images/MSR-VTT-videoTestVideo_video9044-shot1_0/img21.jpg,Images/MSR-VTT-videoTestVideo_video9044-shot1_0/img31.jpg,Images/MSR-VTT-videoTestVideo_video9044-shot1_0/img41.jpg,Images/MSR-VTT-videoTestVideo_video9044-shot1_0/img54.jpg,1261,16,0,2022-06-15_11h43.13.317,annotation,2021.2.3,Win32,59.99880002,,
,,,,,,,,,,,,,,,,,0.277777778,-0.135185185,1,0,0,image_8,0,7,7,10,1,1405,A doll that is standing in front of a fire hydrant.,M,0,1,MSR-VTT-videoTestVideo_video9396-shot0_0,Images/MSR-VTT-videoTestVideo_video9396-shot0_0/img0.jpg,Images/MSR-VTT-videoTestVideo_video9396-shot0_0/img11.jpg,Images/MSR-VTT-videoTestVideo_video9396-shot0_0/img22.jpg,Images/MSR-VTT-videoTestVideo_video9396-shot0_0/img31.jpg,Images/MSR-VTT-videoTestVideo_video9396-shot0_0/img38.jpg,Images/MSR-VTT-videoTestVideo_video9396-shot0_0/img40.jpg,Images/MSR-VTT-videoTestVideo_video9396-shot0_0/img45.jpg,Images/MSR-VTT-videoTestVideo_video9396-shot0_0/img52.jpg,Images/MSR-VTT-videoTestVideo_video9396-shot0_0/img76.jpg,Images/MSR-VTT-videoTestVideo_video9396-shot0_0/img107.jpg,373,16,0,2022-06-15_11h43.13.317,annotation,2021.2.3,Win32,59.99880002,,
,,,,,,,,,,,,,,,,,-0.503703704,0.14537037,1,0,0,image_0,0,8,8,50,1,1224,A woman in a chef's hat preparing food.,M,0,2,YouCook-video0098-shot1_0,Images/YouCook-video0098-shot1_0/img0.jpg,Images/YouCook-video0098-shot1_0/img24.jpg,Images/YouCook-video0098-shot1_0/img106.jpg,Images/YouCook-video0098-shot1_0/img132.jpg,Images/YouCook-video0098-shot1_0/img137.jpg,Images/YouCook-video0098-shot1_0/img139.jpg,Images/YouCook-video0098-shot1_0/img149.jpg,Images/YouCook-video0098-shot1_0/img170.jpg,Images/YouCook-video0098-shot1_0/img191.jpg,Images/YouCook-video0098-shot1_0/img201.jpg,1788,16,0,2022-06-15_11h43.13.317,annotation,2021.2.3,Win32,59.99880002,,
,,,,,,,,,,,,,,,,,0.464814815,-0.162037037,1,0,0,image_9,0,9,9,27,1,1938,A person riding a car down the side of a road.,M,1,5,MSR-VTT-videoTestVideo_video9806-shot1_2,Images/MSR-VTT-videoTestVideo_video9806-shot1_2/img153.jpg,Images/MSR-VTT-videoTestVideo_video9806-shot1_2/img159.jpg,Images/MSR-VTT-videoTestVideo_video9806-shot1_2/img163.jpg,Images/MSR-VTT-videoTestVideo_video9806-shot1_2/img165.jpg,Images/MSR-VTT-videoTestVideo_video9806-shot1_2/img173.jpg,Images/MSR-VTT-videoTestVideo_video9806-shot1_2/img182.jpg,Images/MSR-VTT-videoTestVideo_video9806-shot1_2/img188.jpg,Images/MSR-VTT-videoTestVideo_video9806-shot1_2/img193.jpg,Images/MSR-VTT-videoTestVideo_video9806-shot1_2/img203.jpg,Images/MSR-VTT-videoTestVideo_video9806-shot1_2/img216.jpg,345,16,0,2022-06-15_11h43.13.317,annotation,2021.2.3,Win32,59.99880002,,
,,,,,,,,,,,,,,,,,-0.257407407,0.180555556,1,0,0,image_1,0,10,10,62,1,4,A penguin holding a piece of paper with text on it. ,H,,1,open-images-2521_074d6af730ed17a6,Checks/check5/open-images-509_4d8bd994cb8c6eaeimg0.jpg,Checks/check5/open-images-2521_074d6af730ed17a6img1.jpg,Checks/check5/open-images-1365_a00a5fde334ae45aimg4.jpg,Checks/check5/open-images-1602_44092afdeab39e73img6.jpg,Checks/check5/open-images-1032_059f3cdfb85ee0ceimg3.jpg,Checks/check5/open-images-727_25b77fff36adba66img2.jpg,Checks/check5/open-images-2208_0fb92b9978d98575img2.jpg,Checks/check5/open-images-1305_05769e6abb16fdc8img9.jpg,Checks/check5/open-images-2676_052dbf7b4899430bimg1.jpg,Checks/check5/open-images-2569_1e81d79bb796a2dbimg7.jpg,,,1,2022-06-15_11h43.13.317,annotation,2021.2.3,Win32,59.99880002,,
,,,,,,,,,,,,,,,,,-0.257407407,0.180555556,1,0,0,image_1,0,11,11,28,1,1555,A couple of people standing next to each other on a bed.,M,0,7,MSR-VTT-videoTestVideo_video7161-shot0_0,Images/MSR-VTT-videoTestVideo_video7161-shot0_0/img0.jpg,Images/MSR-VTT-videoTestVideo_video7161-shot0_0/img19.jpg,Images/MSR-VTT-videoTestVideo_video7161-shot0_0/img21.jpg,Images/MSR-VTT-videoTestVideo_video7161-shot0_0/img26.jpg,Images/MSR-VTT-videoTestVideo_video7161-shot0_0/img34.jpg,Images/MSR-VTT-videoTestVideo_video7161-shot0_0/img40.jpg,Images/MSR-VTT-videoTestVideo_video7161-shot0_0/img48.jpg,Images/MSR-VTT-videoTestVideo_video7161-shot0_0/img51.jpg,Images/MSR-VTT-videoTestVideo_video7161-shot0_0/img62.jpg,Images/MSR-VTT-videoTestVideo_video7161-shot0_0/img70.jpg,1314,16,0,2022-06-15_11h43.13.317,annotation,2021.2.3,Win32,59.99880002,,
,,,,,,,,,,,,,,,,,-0.519444444,0.141666667,1,0,0,image_0,0,12,12,18,1,479,the person in purple in the forground is visible up to just below their chin,H,0,2,MSR-VTT-videoTestVideo_video9228-shot4_1,Images/MSR-VTT-videoTestVideo_video9228-shot4_1/img102.jpg,Images/MSR-VTT-videoTestVideo_video9228-shot4_1/img128.jpg,Images/MSR-VTT-videoTestVideo_video9228-shot4_1/img134.jpg,Images/MSR-VTT-videoTestVideo_video9228-shot4_1/img147.jpg,Images/MSR-VTT-videoTestVideo_video9228-shot4_1/img172.jpg,Images/MSR-VTT-videoTestVideo_video9228-shot4_1/img246.jpg,Images/MSR-VTT-videoTestVideo_video9228-shot4_1/img252.jpg,Images/MSR-VTT-videoTestVideo_video9228-shot4_1/img257.jpg,Images/MSR-VTT-videoTestVideo_video9228-shot4_1/img262.jpg,Images/MSR-VTT-videoTestVideo_video9228-shot4_1/img269.jpg,1619,16,0,2022-06-15_11h43.13.317,annotation,2021.2.3,Win32,59.99880002,,
,,,,,,,,,,,,,,,,,-0.286111111,-0.125,1,0,0,image_6,0,13,13,47,1,432,The woman is standing out of line and giving something to the little boy.,H,0,0,video-storytelling-videowedding_de8dLXvgV-I-shot28_0,Images/video-storytelling-videowedding_de8dLXvgV-I-shot28_0/img0.jpg,Images/video-storytelling-videowedding_de8dLXvgV-I-shot28_0/img60.jpg,Images/video-storytelling-videowedding_de8dLXvgV-I-shot28_0/img68.jpg,Images/video-storytelling-videowedding_de8dLXvgV-I-shot28_0/img81.jpg,Images/video-storytelling-videowedding_de8dLXvgV-I-shot28_0/img87.jpg,Images/video-storytelling-videowedding_de8dLXvgV-I-shot28_0/img114.jpg,Images/video-storytelling-videowedding_de8dLXvgV-I-shot28_0/img121.jpg,Images/video-storytelling-videowedding_de8dLXvgV-I-shot28_0/img179.jpg,Images/video-storytelling-videowedding_de8dLXvgV-I-shot28_0/img221.jpg,Images/video-storytelling-videowedding_de8dLXvgV-I-shot28_0/img248.jpg,371,16,0,2022-06-15_11h43.13.317,annotation,2021.2.3,Win32,59.99880002,,
,,,,,,,,,,,,,,,,,-0.243518519,-0.10462963,1,0,0,image_6,0,14,14,53,1,1177,A picture of a kitchen with a television on it.,M,0,6,YouCook-video0008-shot10_1,Images/YouCook-video0008-shot10_1/img35.jpg,Images/YouCook-video0008-shot10_1/img40.jpg,Images/YouCook-video0008-shot10_1/img42.jpg,Images/YouCook-video0008-shot10_1/img46.jpg,Images/YouCook-video0008-shot10_1/img49.jpg,Images/YouCook-video0008-shot10_1/img64.jpg,Images/YouCook-video0008-shot10_1/img93.jpg,Images/YouCook-video0008-shot10_1/img96.jpg,Images/YouCook-video0008-shot10_1/img100.jpg,Images/YouCook-video0008-shot10_1/img108.jpg,1048,16,0,2022-06-15_11h43.13.317,annotation,2021.2.3,Win32,59.99880002,,
,,,,,,,,,,,,,,,,,0.55,-0.162037037,1,0,0,image_9,0,15,15,60,1,2,Green type writer with a red tape. ,H,,9,open-images-531_0dd4eb59d465a8be,Checks/check3/open-images-503_1ccd6fa641154ebbimg7.jpg,Checks/check3/open-images-1852_00faf52058ad28b8img4.jpg,Checks/check3/open-images-386_1b2e28d6d994603eimg1.jpg,Checks/check3/open-images-471_1121e9f97c200ac0img8.jpg,Checks/check3/open-images-1886_3db71eaddb618934img8.jpg,Checks/check3/open-images-1696_20a4ebf0c0f76b05img6.jpg,Checks/check3/open-images-2447_128483a48e1552f4img6.jpg,Checks/check3/open-images-2994_9965cbf8aa20bda0img2.jpg,Checks/check3/open-images-1068_03d63613107970b3img6.jpg,Checks/check3/open-images-531_0dd4eb59d465a8beimg9.jpg,,,1,2022-06-15_11h43.13.317,annotation,2021.2.3,Win32,59.99880002,,
,,,,,,,,,,,,,,,,,0.035185185,0.130555556,1,0,0,image_2,0,16,16,32,1,750,The woman on the far left has only a couple of fingers showing up to her ear with no phone showing.,H,0,2,MSR-VTT-videoTestVideo_video9007-shot1_0,Images/MSR-VTT-videoTestVideo_video9007-shot1_0/img0.jpg,Images/MSR-VTT-videoTestVideo_video9007-shot1_0/img2.jpg,Images/MSR-VTT-videoTestVideo_video9007-shot1_0/img3.jpg,Images/MSR-VTT-videoTestVideo_video9007-shot1_0/img4.jpg,Images/MSR-VTT-videoTestVideo_video9007-shot1_0/img5.jpg,Images/MSR-VTT-videoTestVideo_video9007-shot1_0/img8.jpg,Images/MSR-VTT-videoTestVideo_video9007-shot1_0/img10.jpg,Images/MSR-VTT-videoTestVideo_video9007-shot1_0/img12.jpg,Images/MSR-VTT-videoTestVideo_video9007-shot1_0/img15.jpg,Images/MSR-VTT-videoTestVideo_video9007-shot1_0/img17.jpg,951,16,0,2022-06-15_11h43.13.317,annotation,2021.2.3,Win32,59.99880002,,
,,,,,,,,,,,,,,,,,0.241666667,-0.112962963,1,0,0,image_8,0,17,17,21,1,1045,A couple of people standing next to each other.,M,0,8,MSR-VTT-videoTestVideo_video7047-shot1_0,Images/MSR-VTT-videoTestVideo_video7047-shot1_0/img0.jpg,Images/MSR-VTT-videoTestVideo_video7047-shot1_0/img1.jpg,Images/MSR-VTT-videoTestVideo_video7047-shot1_0/img27.jpg,Images/MSR-VTT-videoTestVideo_video7047-shot1_0/img32.jpg,Images/MSR-VTT-videoTestVideo_video7047-shot1_0/img33.jpg,Images/MSR-VTT-videoTestVideo_video7047-shot1_0/img39.jpg,Images/MSR-VTT-videoTestVideo_video7047-shot1_0/img82.jpg,Images/MSR-VTT-videoTestVideo_video7047-shot1_0/img112.jpg,Images/MSR-VTT-videoTestVideo_video7047-shot1_0/img113.jpg,Images/MSR-VTT-videoTestVideo_video7047-shot1_0/img123.jpg,1965,16,0,2022-06-15_11h43.13.317,annotation,2021.2.3,Win32,59.99880002,,
,,,,,,,,,,,,,,,,,0.558333333,0.147222222,1,0,0,image_4,0,18,18,19,1,345,The left hand is under a red circle with writing on it. The right hand is hovering over the elbow area of the left arm.,H,0,4,MSR-VTT-videoTestVideo_video9279-shot1_1,Images/MSR-VTT-videoTestVideo_video9279-shot1_1/img47.jpg,Images/MSR-VTT-videoTestVideo_video9279-shot1_1/img49.jpg,Images/MSR-VTT-videoTestVideo_video9279-shot1_1/img54.jpg,Images/MSR-VTT-videoTestVideo_video9279-shot1_1/img63.jpg,Images/MSR-VTT-videoTestVideo_video9279-shot1_1/img72.jpg,Images/MSR-VTT-videoTestVideo_video9279-shot1_1/img146.jpg,Images/MSR-VTT-videoTestVideo_video9279-shot1_1/img154.jpg,Images/MSR-VTT-videoTestVideo_video9279-shot1_1/img155.jpg,Images/MSR-VTT-videoTestVideo_video9279-shot1_1/img157.jpg,Images/MSR-VTT-videoTestVideo_video9279-shot1_1/img159.jpg,320,16,0,2022-06-15_11h43.13.317,annotation,2021.2.3,Win32,59.99880002,,
,,,,,,,,,,,,,,,,,-0.275925926,-0.107407407,1,0,0,image_6,0,19,19,41,1,2024,A man and a woman sitting next to each other on a table.,M,0,6,MSR-VTT-videoTestVideo_video7578-shot1_0,Images/MSR-VTT-videoTestVideo_video7578-shot1_0/img0.jpg,Images/MSR-VTT-videoTestVideo_video7578-shot1_0/img16.jpg,Images/MSR-VTT-videoTestVideo_video7578-shot1_0/img32.jpg,Images/MSR-VTT-videoTestVideo_video7578-shot1_0/img113.jpg,Images/MSR-VTT-videoTestVideo_video7578-shot1_0/img195.jpg,Images/MSR-VTT-videoTestVideo_video7578-shot1_0/img238.jpg,Images/MSR-VTT-videoTestVideo_video7578-shot1_0/img274.jpg,Images/MSR-VTT-videoTestVideo_video7578-shot1_0/img331.jpg,Images/MSR-VTT-videoTestVideo_video7578-shot1_0/img345.jpg,Images/MSR-VTT-videoTestVideo_video7578-shot1_0/img357.jpg,696,16,0,2022-06-15_11h43.13.317,annotation,2021.2.3,Win32,59.99880002,,
,,,,,,,,,,,,,,,,,0.541666667,0.118518519,1,0,0,image_4,0,20,20,7,1,883,The two images are overlapping showing a statue's head over the women's eye.,H,0,9,MSR-VTT-videoTestVideo_video9782-shot1_1,Images/MSR-VTT-videoTestVideo_video9782-shot1_1/img208.jpg,Images/MSR-VTT-videoTestVideo_video9782-shot1_1/img268.jpg,Images/MSR-VTT-videoTestVideo_video9782-shot1_1/img304.jpg,Images/MSR-VTT-videoTestVideo_video9782-shot1_1/img345.jpg,Images/MSR-VTT-videoTestVideo_video9782-shot1_1/img350.jpg,Images/MSR-VTT-videoTestVideo_video9782-shot1_1/img351.jpg,Images/MSR-VTT-videoTestVideo_video9782-shot1_1/img356.jpg,Images/MSR-VTT-videoTestVideo_video9782-shot1_1/img363.jpg,Images/MSR-VTT-videoTestVideo_video9782-shot1_1/img494.jpg,Images/MSR-VTT-videoTestVideo_video9782-shot1_1/img499.jpg,1343,16,0,2022-06-15_11h43.13.317,annotation,2021.2.3,Win32,59.99880002,,
,,,,,,,,,,,,,,,,,0.55,0.152777778,1,0,0,image_4,0,21,21,36,1,993,The boy's left thumb is pointing to our right. He is not looking at the black item in his hand. ,H,0,4,video-storytelling-videochristmas_5RR_sRzKODA-shot23_7,Images/video-storytelling-videochristmas_5RR_sRzKODA-shot23_7/img300.jpg,Images/video-storytelling-videochristmas_5RR_sRzKODA-shot23_7/img305.jpg,Images/video-storytelling-videochristmas_5RR_sRzKODA-shot23_7/img307.jpg,Images/video-storytelling-videochristmas_5RR_sRzKODA-shot23_7/img311.jpg,Images/video-storytelling-videochristmas_5RR_sRzKODA-shot23_7/img313.jpg,Images/video-storytelling-videochristmas_5RR_sRzKODA-shot23_7/img317.jpg,Images/video-storytelling-videochristmas_5RR_sRzKODA-shot23_7/img319.jpg,Images/video-storytelling-videochristmas_5RR_sRzKODA-shot23_7/img321.jpg,Images/video-storytelling-videochristmas_5RR_sRzKODA-shot23_7/img326.jpg,Images/video-storytelling-videochristmas_5RR_sRzKODA-shot23_7/img329.jpg,1735,16,0,2022-06-15_11h43.13.317,annotation,2021.2.3,Win32,59.99880002,,
,,,,,,,,,,,,,,,,,-0.487037037,-0.126851852,1,0,0,image_5,0,22,22,20,1,947,The woman still hasn't begun to open the present yet.  She has started to move her left hand slightly up the side of the present. ,H,0,3,video-storytelling-videobirthday_fwpYnUDbusw-shot7_0,Images/video-storytelling-videobirthday_fwpYnUDbusw-shot7_0/img0.jpg,Images/video-storytelling-videobirthday_fwpYnUDbusw-shot7_0/img7.jpg,Images/video-storytelling-videobirthday_fwpYnUDbusw-shot7_0/img17.jpg,Images/video-storytelling-videobirthday_fwpYnUDbusw-shot7_0/img24.jpg,Images/video-storytelling-videobirthday_fwpYnUDbusw-shot7_0/img37.jpg,Images/video-storytelling-videobirthday_fwpYnUDbusw-shot7_0/img60.jpg,Images/video-storytelling-videobirthday_fwpYnUDbusw-shot7_0/img76.jpg,Images/video-storytelling-videobirthday_fwpYnUDbusw-shot7_0/img85.jpg,Images/video-storytelling-videobirthday_fwpYnUDbusw-shot7_0/img91.jpg,Images/video-storytelling-videobirthday_fwpYnUDbusw-shot7_0/img102.jpg,568,16,0,2022-06-15_11h43.13.317,annotation,2021.2.3,Win32,59.99880002,,
,,,,,,,,,,,,,,,,,0.516666667,0.135185185,1,0,0,image_4,0,23,23,49,1,366,There are a bunch of wires. A hand is reaching in from the right and just the fingers are visible.,H,1,4,MSR-VTT-videoTestVideo_video8609-shot1_2,Images/MSR-VTT-videoTestVideo_video8609-shot1_2/img50.jpg,Images/MSR-VTT-videoTestVideo_video8609-shot1_2/img54.jpg,Images/MSR-VTT-videoTestVideo_video8609-shot1_2/img57.jpg,Images/MSR-VTT-videoTestVideo_video8609-shot1_2/img62.jpg,Images/MSR-VTT-videoTestVideo_video8609-shot1_2/img67.jpg,Images/MSR-VTT-videoTestVideo_video8609-shot1_2/img70.jpg,Images/MSR-VTT-videoTestVideo_video8609-shot1_2/img85.jpg,Images/MSR-VTT-videoTestVideo_video8609-shot1_2/img96.jpg,Images/MSR-VTT-videoTestVideo_video8609-shot1_2/img102.jpg,Images/MSR-VTT-videoTestVideo_video8609-shot1_2/img117.jpg,731,16,0,2022-06-15_11h43.13.317,annotation,2021.2.3,Win32,59.99880002,,
,,,,,,,,,,,,,,,,,0.222222222,-0.143518519,1,0,0,image_8,0,24,24,40,1,255,The left index finger and thumb are curved around a small piece of lettuce resting on right hand.,H,0,8,YouCook-video0035-shot7_3,Images/YouCook-video0035-shot7_3/img183.jpg,Images/YouCook-video0035-shot7_3/img186.jpg,Images/YouCook-video0035-shot7_3/img196.jpg,Images/YouCook-video0035-shot7_3/img201.jpg,Images/YouCook-video0035-shot7_3/img205.jpg,Images/YouCook-video0035-shot7_3/img215.jpg,Images/YouCook-video0035-shot7_3/img230.jpg,Images/YouCook-video0035-shot7_3/img234.jpg,Images/YouCook-video0035-shot7_3/img246.jpg,Images/YouCook-video0035-shot7_3/img248.jpg,2074,16,0,2022-06-15_11h43.13.317,annotation,2021.2.3,Win32,59.99880002,,
,,,,,,,,,,,,,,,,,-0.516666667,-0.164814815,1,0,0,image_5,0,25,25,42,1,751,You can see most of the circles of paint very clearly but the ones at the bottom are cut off. There are no fingers or legs seen. ,H,0,4,MSR-VTT-videoTestVideo_video8408-shot1_0,Images/MSR-VTT-videoTestVideo_video8408-shot1_0/img0.jpg,Images/MSR-VTT-videoTestVideo_video8408-shot1_0/img6.jpg,Images/MSR-VTT-videoTestVideo_video8408-shot1_0/img17.jpg,Images/MSR-VTT-videoTestVideo_video8408-shot1_0/img32.jpg,Images/MSR-VTT-videoTestVideo_video8408-shot1_0/img55.jpg,Images/MSR-VTT-videoTestVideo_video8408-shot1_0/img69.jpg,Images/MSR-VTT-videoTestVideo_video8408-shot1_0/img76.jpg,Images/MSR-VTT-videoTestVideo_video8408-shot1_0/img78.jpg,Images/MSR-VTT-videoTestVideo_video8408-shot1_0/img79.jpg,Images/MSR-VTT-videoTestVideo_video8408-shot1_0/img80.jpg,1962,16,0,2022-06-15_11h43.13.317,annotation,2021.2.3,Win32,59.99880002,,
,,,,,,,,,,,,,,,,,-0.502777778,0.215740741,1,0,0,image_0,0,26,26,13,1,221,A man is looking down with none of his hands visible and only a sliver of his left arm flesh exposed,H,0,0,video-storytelling-videocamping_EytINruY3-U-shot43_1,Images/video-storytelling-videocamping_EytINruY3-U-shot43_1/img109.jpg,Images/video-storytelling-videocamping_EytINruY3-U-shot43_1/img119.jpg,Images/video-storytelling-videocamping_EytINruY3-U-shot43_1/img132.jpg,Images/video-storytelling-videocamping_EytINruY3-U-shot43_1/img169.jpg,Images/video-storytelling-videocamping_EytINruY3-U-shot43_1/img250.jpg,Images/video-storytelling-videocamping_EytINruY3-U-shot43_1/img301.jpg,Images/video-storytelling-videocamping_EytINruY3-U-shot43_1/img309.jpg,Images/video-storytelling-videocamping_EytINruY3-U-shot43_1/img312.jpg,Images/video-storytelling-videocamping_EytINruY3-U-shot43_1/img314.jpg,Images/video-storytelling-videocamping_EytINruY3-U-shot43_1/img326.jpg,1982,16,0,2022-06-15_11h43.13.317,annotation,2021.2.3,Win32,59.99880002,,
,,,,,,,,,,,,,,,,,0.491666667,0.097222222,1,0,0,image_4,0,27,27,56,1,1627,A man standing in front of a table with a plastic bag.,M,0,7,MSR-VTT-videoTestVideo_video9276-shot1_0,Images/MSR-VTT-videoTestVideo_video9276-shot1_0/img1.jpg,Images/MSR-VTT-videoTestVideo_video9276-shot1_0/img3.jpg,Images/MSR-VTT-videoTestVideo_video9276-shot1_0/img8.jpg,Images/MSR-VTT-videoTestVideo_video9276-shot1_0/img10.jpg,Images/MSR-VTT-videoTestVideo_video9276-shot1_0/img13.jpg,Images/MSR-VTT-videoTestVideo_video9276-shot1_0/img15.jpg,Images/MSR-VTT-videoTestVideo_video9276-shot1_0/img17.jpg,Images/MSR-VTT-videoTestVideo_video9276-shot1_0/img20.jpg,Images/MSR-VTT-videoTestVideo_video9276-shot1_0/img21.jpg,Images/MSR-VTT-videoTestVideo_video9276-shot1_0/img22.jpg,1139,16,0,2022-06-15_11h43.13.317,annotation,2021.2.3,Win32,59.99880002,,
,,,,,,,,,,,,,,,,,0.309259259,0.196296296,1,0,0,image_3,0,28,28,51,1,1665,A backyard view of a house with a backyard fence.,M,1,3,video-storytelling-videobirthday__amwPjAcoC8-shot66_4,Images/video-storytelling-videobirthday__amwPjAcoC8-shot66_4/img135.jpg,Images/video-storytelling-videobirthday__amwPjAcoC8-shot66_4/img137.jpg,Images/video-storytelling-videobirthday__amwPjAcoC8-shot66_4/img139.jpg,Images/video-storytelling-videobirthday__amwPjAcoC8-shot66_4/img140.jpg,Images/video-storytelling-videobirthday__amwPjAcoC8-shot66_4/img142.jpg,Images/video-storytelling-videobirthday__amwPjAcoC8-shot66_4/img143.jpg,Images/video-storytelling-videobirthday__amwPjAcoC8-shot66_4/img147.jpg,Images/video-storytelling-videobirthday__amwPjAcoC8-shot66_4/img148.jpg,Images/video-storytelling-videobirthday__amwPjAcoC8-shot66_4/img157.jpg,Images/video-storytelling-videobirthday__amwPjAcoC8-shot66_4/img159.jpg,2087,16,0,2022-06-15_11h43.13.317,annotation,2021.2.3,Win32,59.99880002,,
,,,,,,,,,,,,,,,,,0.214814815,0.219444444,1,0,0,image_3,0,29,29,54,1,1164,A golden brown golden brown pastry is sitting on top of a bowl.,M,0,8,YouCook-video0008-shot2_0,Images/YouCook-video0008-shot2_0/img0.jpg,Images/YouCook-video0008-shot2_0/img49.jpg,Images/YouCook-video0008-shot2_0/img56.jpg,Images/YouCook-video0008-shot2_0/img71.jpg,Images/YouCook-video0008-shot2_0/img78.jpg,Images/YouCook-video0008-shot2_0/img215.jpg,Images/YouCook-video0008-shot2_0/img223.jpg,Images/YouCook-video0008-shot2_0/img259.jpg,Images/YouCook-video0008-shot2_0/img293.jpg,Images/YouCook-video0008-shot2_0/img339.jpg,1540,16,0,2022-06-15_11h43.13.317,annotation,2021.2.3,Win32,59.99880002,,
,,,,,,,,,,,,,,,,,-0.477777778,-0.175925926,1,0,0,image_5,0,30,30,59,1,1,The only picture of a hawk.  It is looking to the left.  You see lots of branches and darker blue sky. ,H,,5,open-images-958_686caac9c5b322e7,Checks/check2/open-images-2603_1b5152f01f0093e7img3.jpg,Checks/check2/open-images-1836_069810916ce5d675img8.jpg,Checks/check2/open-images-974_0748fdedc4bf8b7bimg2.jpg,Checks/check2/open-images-617_01fb725fb1aa7b04img6.jpg,Checks/check2/open-images-507_047769e1f977cd97img2.jpg,Checks/check2/open-images-958_686caac9c5b322e7img5.jpg,Checks/check2/open-images-1278_21851d9bf5dc05c9img7.jpg,Checks/check2/open-images-2424_05f04546e01499f2img0.jpg,Checks/check2/open-images-1529_1442b11a10a6aeadimg3.jpg,Checks/check2/open-images-514_2c523ddedc2561d4img1.jpg,,,1,2022-06-15_11h43.13.317,annotation,2021.2.3,Win32,59.99880002,,
,,,,,,,,,,,,,,,,,0.284259259,-0.162962963,1,0,0,image_8,0,31,31,52,1,48,Picture where girl is touching her eye with her middle and ring fingers,H,0,8,MSR-VTT-videoTestVideo_video7996-shot2_0,Images/MSR-VTT-videoTestVideo_video7996-shot2_0/img0.jpg,Images/MSR-VTT-videoTestVideo_video7996-shot2_0/img2.jpg,Images/MSR-VTT-videoTestVideo_video7996-shot2_0/img6.jpg,Images/MSR-VTT-videoTestVideo_video7996-shot2_0/img10.jpg,Images/MSR-VTT-videoTestVideo_video7996-shot2_0/img16.jpg,Images/MSR-VTT-videoTestVideo_video7996-shot2_0/img22.jpg,Images/MSR-VTT-videoTestVideo_video7996-shot2_0/img49.jpg,Images/MSR-VTT-videoTestVideo_video7996-shot2_0/img56.jpg,Images/MSR-VTT-videoTestVideo_video7996-shot2_0/img89.jpg,Images/MSR-VTT-videoTestVideo_video7996-shot2_0/img101.jpg,1456,16,0,2022-06-15_11h43.13.317,annotation,2021.2.3,Win32,59.99880002,,
,,,,,,,,,,,,,,,,,-0.274074074,-0.122222222,1,0,0,image_6,0,32,32,2,1,1657,A picture of a refrigerator and a video game.,M,0,4,YouCook-video0008-shot10_1,Images/YouCook-video0008-shot10_1/img35.jpg,Images/YouCook-video0008-shot10_1/img40.jpg,Images/YouCook-video0008-shot10_1/img42.jpg,Images/YouCook-video0008-shot10_1/img46.jpg,Images/YouCook-video0008-shot10_1/img49.jpg,Images/YouCook-video0008-shot10_1/img64.jpg,Images/YouCook-video0008-shot10_1/img93.jpg,Images/YouCook-video0008-shot10_1/img96.jpg,Images/YouCook-video0008-shot10_1/img100.jpg,Images/YouCook-video0008-shot10_1/img108.jpg,1438,16,0,2022-06-15_11h43.13.317,annotation,2021.2.3,Win32,59.99880002,,
,,,,,,,,,,,,,,,,,0.286111111,-0.175925926,1,0,0,image_8,0,33,33,23,1,1300,A couple of people in a kitchen preparing food.,M,0,1,MSR-VTT-videoTestVideo_video8129-shot1_3,Images/MSR-VTT-videoTestVideo_video8129-shot1_3/img421.jpg,Images/MSR-VTT-videoTestVideo_video8129-shot1_3/img425.jpg,Images/MSR-VTT-videoTestVideo_video8129-shot1_3/img435.jpg,Images/MSR-VTT-videoTestVideo_video8129-shot1_3/img441.jpg,Images/MSR-VTT-videoTestVideo_video8129-shot1_3/img446.jpg,Images/MSR-VTT-videoTestVideo_video8129-shot1_3/img450.jpg,Images/MSR-VTT-videoTestVideo_video8129-shot1_3/img454.jpg,Images/MSR-VTT-videoTestVideo_video8129-shot1_3/img457.jpg,Images/MSR-VTT-videoTestVideo_video8129-shot1_3/img462.jpg,Images/MSR-VTT-videoTestVideo_video8129-shot1_3/img464.jpg,760,16,0,2022-06-15_11h43.13.317,annotation,2021.2.3,Win32,59.99880002,,
,,,,,,,,,,,,,,,,,0.3,0.159259259,1,0,0,image_3,0,34,34,29,1,467,Woman has her head tilted slightly down with mouth in shape of circle and chin pointy,H,0,3,MSR-VTT-videoTestVideo_video9109-shot1_0,Images/MSR-VTT-videoTestVideo_video9109-shot1_0/img7.jpg,Images/MSR-VTT-videoTestVideo_video9109-shot1_0/img25.jpg,Images/MSR-VTT-videoTestVideo_video9109-shot1_0/img31.jpg,Images/MSR-VTT-videoTestVideo_video9109-shot1_0/img40.jpg,Images/MSR-VTT-videoTestVideo_video9109-shot1_0/img46.jpg,Images/MSR-VTT-videoTestVideo_video9109-shot1_0/img59.jpg,Images/MSR-VTT-videoTestVideo_video9109-shot1_0/img63.jpg,Images/MSR-VTT-videoTestVideo_video9109-shot1_0/img67.jpg,Images/MSR-VTT-videoTestVideo_video9109-shot1_0/img83.jpg,Images/MSR-VTT-videoTestVideo_video9109-shot1_0/img98.jpg,365,16,0,2022-06-15_11h43.13.317,annotation,2021.2.3,Win32,59.99880002,,
,,,,,,,,,,,,,,,,,-0.242592593,0.15462963,1,0,0,image_1,0,35,35,15,1,1000,Two of the flags on the upper left hand corner of the image have just started to get cut off by the top of the picture. ,H,0,1,video-storytelling-videocamping_dBXYM3dQTSo-shot78_1,Images/video-storytelling-videocamping_dBXYM3dQTSo-shot78_1/img48.jpg,Images/video-storytelling-videocamping_dBXYM3dQTSo-shot78_1/img55.jpg,Images/video-storytelling-videocamping_dBXYM3dQTSo-shot78_1/img60.jpg,Images/video-storytelling-videocamping_dBXYM3dQTSo-shot78_1/img65.jpg,Images/video-storytelling-videocamping_dBXYM3dQTSo-shot78_1/img66.jpg,Images/video-storytelling-videocamping_dBXYM3dQTSo-shot78_1/img71.jpg,Images/video-storytelling-videocamping_dBXYM3dQTSo-shot78_1/img75.jpg,Images/video-storytelling-videocamping_dBXYM3dQTSo-shot78_1/img79.jpg,Images/video-storytelling-videocamping_dBXYM3dQTSo-shot78_1/img80.jpg,Images/video-storytelling-videocamping_dBXYM3dQTSo-shot78_1/img86.jpg,443,16,0,2022-06-15_11h43.13.317,annotation,2021.2.3,Win32,59.99880002,,
,,,,,,,,,,,,,,,,,0.051851852,0.135185185,1,0,0,image_2,0,36,36,39,1,873,Woman has the door half way open and has not yet stepped into the room. You can see a camera in her hand.,H,0,2,video-storytelling-videobirthday_fwpYnUDbusw-shot4_0,Images/video-storytelling-videobirthday_fwpYnUDbusw-shot4_0/img0.jpg,Images/video-storytelling-videobirthday_fwpYnUDbusw-shot4_0/img4.jpg,Images/video-storytelling-videobirthday_fwpYnUDbusw-shot4_0/img9.jpg,Images/video-storytelling-videobirthday_fwpYnUDbusw-shot4_0/img19.jpg,Images/video-storytelling-videobirthday_fwpYnUDbusw-shot4_0/img26.jpg,Images/video-storytelling-videobirthday_fwpYnUDbusw-shot4_0/img40.jpg,Images/video-storytelling-videobirthday_fwpYnUDbusw-shot4_0/img62.jpg,Images/video-storytelling-videobirthday_fwpYnUDbusw-shot4_0/img78.jpg,Images/video-storytelling-videobirthday_fwpYnUDbusw-shot4_0/img85.jpg,Images/video-storytelling-videobirthday_fwpYnUDbusw-shot4_0/img96.jpg,1527,16,0,2022-06-15_11h43.13.317,annotation,2021.2.3,Win32,59.99880002,,
,,,,,,,,,,,,,,,,,0.257407407,-0.149074074,1,0,0,image_8,0,37,37,22,1,2063,A small child sitting in front of a television.,M,0,9,MSR-VTT-videoTestVideo_video7698-shot1_0,Images/MSR-VTT-videoTestVideo_video7698-shot1_0/img0.jpg,Images/MSR-VTT-videoTestVideo_video7698-shot1_0/img37.jpg,Images/MSR-VTT-videoTestVideo_video7698-shot1_0/img49.jpg,Images/MSR-VTT-videoTestVideo_video7698-shot1_0/img50.jpg,Images/MSR-VTT-videoTestVideo_video7698-shot1_0/img63.jpg,Images/MSR-VTT-videoTestVideo_video7698-shot1_0/img70.jpg,Images/MSR-VTT-videoTestVideo_video7698-shot1_0/img80.jpg,Images/MSR-VTT-videoTestVideo_video7698-shot1_0/img125.jpg,Images/MSR-VTT-videoTestVideo_video7698-shot1_0/img151.jpg,Images/MSR-VTT-videoTestVideo_video7698-shot1_0/img186.jpg,1791,16,0,2022-06-15_11h43.13.317,annotation,2021.2.3,Win32,59.99880002,,
,,,,,,,,,,,,,,,,,0.019444444,0.15462963,1,0,0,image_2,0,38,38,55,1,324,The is a white reflection on the bootle and the hand is not visible yet.,H,0,2,MSR-VTT-videoTestVideo_video7511-shot1_2,Images/MSR-VTT-videoTestVideo_video7511-shot1_2/img56.jpg,Images/MSR-VTT-videoTestVideo_video7511-shot1_2/img57.jpg,Images/MSR-VTT-videoTestVideo_video7511-shot1_2/img60.jpg,Images/MSR-VTT-videoTestVideo_video7511-shot1_2/img62.jpg,Images/MSR-VTT-videoTestVideo_video7511-shot1_2/img63.jpg,Images/MSR-VTT-videoTestVideo_video7511-shot1_2/img64.jpg,Images/MSR-VTT-videoTestVideo_video7511-shot1_2/img66.jpg,Images/MSR-VTT-videoTestVideo_video7511-shot1_2/img67.jpg,Images/MSR-VTT-videoTestVideo_video7511-shot1_2/img72.jpg,Images/MSR-VTT-videoTestVideo_video7511-shot1_2/img73.jpg,1302,16,0,2022-06-15_11h43.13.317,annotation,2021.2.3,Win32,59.99880002,,
,,,,,,,,,,,,,,,,,0.307407407,-0.192592593,1,0,0,image_8,0,39,39,1,1,1337,A man walking down a street with a green scarf.,M,0,8,MSR-VTT-videoTestVideo_video8286-shot2_0,Images/MSR-VTT-videoTestVideo_video8286-shot2_0/img0.jpg,Images/MSR-VTT-videoTestVideo_video8286-shot2_0/img24.jpg,Images/MSR-VTT-videoTestVideo_video8286-shot2_0/img29.jpg,Images/MSR-VTT-videoTestVideo_video8286-shot2_0/img35.jpg,Images/MSR-VTT-videoTestVideo_video8286-shot2_0/img40.jpg,Images/MSR-VTT-videoTestVideo_video8286-shot2_0/img52.jpg,Images/MSR-VTT-videoTestVideo_video8286-shot2_0/img88.jpg,Images/MSR-VTT-videoTestVideo_video8286-shot2_0/img108.jpg,Images/MSR-VTT-videoTestVideo_video8286-shot2_0/img124.jpg,Images/MSR-VTT-videoTestVideo_video8286-shot2_0/img147.jpg,1436,16,0,2022-06-15_11h43.13.317,annotation,2021.2.3,Win32,59.99880002,,
,,,,,,,,,,,,,,,,,0.307407407,-0.192592593,1,0,0,image_8,0,40,40,4,1,1745,A group of people on a boat in the water.,M,0,6,MSR-VTT-videoTestVideo_video7795-shot1_2,Images/MSR-VTT-videoTestVideo_video7795-shot1_2/img259.jpg,Images/MSR-VTT-videoTestVideo_video7795-shot1_2/img264.jpg,Images/MSR-VTT-videoTestVideo_video7795-shot1_2/img267.jpg,Images/MSR-VTT-videoTestVideo_video7795-shot1_2/img283.jpg,Images/MSR-VTT-videoTestVideo_video7795-shot1_2/img288.jpg,Images/MSR-VTT-videoTestVideo_video7795-shot1_2/img302.jpg,Images/MSR-VTT-videoTestVideo_video7795-shot1_2/img306.jpg,Images/MSR-VTT-videoTestVideo_video7795-shot1_2/img313.jpg,Images/MSR-VTT-videoTestVideo_video7795-shot1_2/img327.jpg,Images/MSR-VTT-videoTestVideo_video7795-shot1_2/img331.jpg,534,16,0,2022-06-15_11h43.13.317,annotation,2021.2.3,Win32,59.99880002,,
,,,,,,,,,,,,,,,,,0.307407407,-0.192592593,1,0,0,image_8,0,41,41,57,1,1327,A man is holding a frisbee in his hand.,M,0,6,MSR-VTT-videoTestVideo_video9276-shot1_0,Images/MSR-VTT-videoTestVideo_video9276-shot1_0/img1.jpg,Images/MSR-VTT-videoTestVideo_video9276-shot1_0/img3.jpg,Images/MSR-VTT-videoTestVideo_video9276-shot1_0/img8.jpg,Images/MSR-VTT-videoTestVideo_video9276-shot1_0/img10.jpg,Images/MSR-VTT-videoTestVideo_video9276-shot1_0/img13.jpg,Images/MSR-VTT-videoTestVideo_video9276-shot1_0/img15.jpg,Images/MSR-VTT-videoTestVideo_video9276-shot1_0/img17.jpg,Images/MSR-VTT-videoTestVideo_video9276-shot1_0/img20.jpg,Images/MSR-VTT-videoTestVideo_video9276-shot1_0/img21.jpg,Images/MSR-VTT-videoTestVideo_video9276-shot1_0/img22.jpg,877,16,0,2022-06-15_11h43.13.317,annotation,2021.2.3,Win32,59.99880002,,
,,,,,,,,,,,,,,,,,-0.237962963,0.101851852,1,0,0,image_1,0,42,42,35,1,1292,A woman is standing on a surfboard in a room.,M,1,2,MSR-VTT-videoTestVideo_video9044-shot0_1,Images/MSR-VTT-videoTestVideo_video9044-shot0_1/img57.jpg,Images/MSR-VTT-videoTestVideo_video9044-shot0_1/img62.jpg,Images/MSR-VTT-videoTestVideo_video9044-shot0_1/img72.jpg,Images/MSR-VTT-videoTestVideo_video9044-shot0_1/img74.jpg,Images/MSR-VTT-videoTestVideo_video9044-shot0_1/img78.jpg,Images/MSR-VTT-videoTestVideo_video9044-shot0_1/img83.jpg,Images/MSR-VTT-videoTestVideo_video9044-shot0_1/img85.jpg,Images/MSR-VTT-videoTestVideo_video9044-shot0_1/img88.jpg,Images/MSR-VTT-videoTestVideo_video9044-shot0_1/img93.jpg,Images/MSR-VTT-videoTestVideo_video9044-shot0_1/img97.jpg,632,16,0,2022-06-15_11h43.13.317,annotation,2021.2.3,Win32,59.99880002,,
,,,,,,,,,,,,,,,,,0.558333333,0.172222222,1,0,0,image_4,0,43,43,38,1,797,The woman is carrying a box.  Her right leg is just starting to cross in front of her left leg as she is reaching out with her leg to move the chair out from the table. Her eyes are no longer visible. ,H,0,4,video-storytelling-videobirthday_fwpYnUDbusw-shot18_1,Images/video-storytelling-videobirthday_fwpYnUDbusw-shot18_1/img58.jpg,Images/video-storytelling-videobirthday_fwpYnUDbusw-shot18_1/img64.jpg,Images/video-storytelling-videobirthday_fwpYnUDbusw-shot18_1/img67.jpg,Images/video-storytelling-videobirthday_fwpYnUDbusw-shot18_1/img73.jpg,Images/video-storytelling-videobirthday_fwpYnUDbusw-shot18_1/img80.jpg,Images/video-storytelling-videobirthday_fwpYnUDbusw-shot18_1/img82.jpg,Images/video-storytelling-videobirthday_fwpYnUDbusw-shot18_1/img85.jpg,Images/video-storytelling-videobirthday_fwpYnUDbusw-shot18_1/img87.jpg,Images/video-storytelling-videobirthday_fwpYnUDbusw-shot18_1/img93.jpg,Images/video-storytelling-videobirthday_fwpYnUDbusw-shot18_1/img96.jpg,4,16,0,2022-06-15_11h43.13.317,annotation,2021.2.3,Win32,59.99880002,,
,,,,,,,,,,,,,,,,,0.001851852,0.125,1,0,0,image_2,0,44,44,58,1,0,Pair of black gloves,H,,2,open-images-510_3a241cb30d6e5319,Checks/check1/open-images-225_1442c0d0ef23d58bimg3.jpg,Checks/check1/open-images-2759_3a42708fe77398b7img8.jpg,Checks/check1/open-images-510_3a241cb30d6e5319img2.jpg,Checks/check1/open-images-2209_02c98146fb93ff17img1.jpg,Checks/check1/open-images-1553_0f128317e56a9d2fimg9.jpg,Checks/check1/open-images-2666_044d7c6d11e6b493img8.jpg,Checks/check1/open-images-2880_159294646083f545img4.jpg,Checks/check1/open-images-609_2dc0baa993a2bd25img5.jpg,Checks/check1/open-images-1854_2b15616b4f1080e7img2.jpg,Checks/check1/open-images-1435_1b0ce31951048765img8.jpg,,,1,2022-06-15_11h43.13.317,annotation,2021.2.3,Win32,59.99880002,,
,,,,,,,,,,,,,,,,,0.001851852,0.125,1,0,0,image_2,0,45,45,26,1,1429,A white sheet of straw with smoke coming out of it.,M,0,2,video-storytelling-videowedding_46xhFCXBMJs-shot39_0,Images/video-storytelling-videowedding_46xhFCXBMJs-shot39_0/img0.jpg,Images/video-storytelling-videowedding_46xhFCXBMJs-shot39_0/img23.jpg,Images/video-storytelling-videowedding_46xhFCXBMJs-shot39_0/img59.jpg,Images/video-storytelling-videowedding_46xhFCXBMJs-shot39_0/img83.jpg,Images/video-storytelling-videowedding_46xhFCXBMJs-shot39_0/img96.jpg,Images/video-storytelling-videowedding_46xhFCXBMJs-shot39_0/img101.jpg,Images/video-storytelling-videowedding_46xhFCXBMJs-shot39_0/img120.jpg,Images/video-storytelling-videowedding_46xhFCXBMJs-shot39_0/img125.jpg,Images/video-storytelling-videowedding_46xhFCXBMJs-shot39_0/img129.jpg,Images/video-storytelling-videowedding_46xhFCXBMJs-shot39_0/img135.jpg,1111,16,0,2022-06-15_11h43.13.317,annotation,2021.2.3,Win32,59.99880002,,
,,,,,,,,,,,,,,,,,0.001851852,0.125,1,0,0,image_2,0,46,46,16,1,1105,a close up of a woman with a cell phone.,M,0,5,MSR-VTT-videoTestVideo_video7051-shot3_0,Images/MSR-VTT-videoTestVideo_video7051-shot3_0/img0.jpg,Images/MSR-VTT-videoTestVideo_video7051-shot3_0/img2.jpg,Images/MSR-VTT-videoTestVideo_video7051-shot3_0/img5.jpg,Images/MSR-VTT-videoTestVideo_video7051-shot3_0/img8.jpg,Images/MSR-VTT-videoTestVideo_video7051-shot3_0/img9.jpg,Images/MSR-VTT-videoTestVideo_video7051-shot3_0/img14.jpg,Images/MSR-VTT-videoTestVideo_video7051-shot3_0/img19.jpg,Images/MSR-VTT-videoTestVideo_video7051-shot3_0/img23.jpg,Images/MSR-VTT-videoTestVideo_video7051-shot3_0/img25.jpg,Images/MSR-VTT-videoTestVideo_video7051-shot3_0/img28.jpg,1152,16,0,2022-06-15_11h43.13.317,annotation,2021.2.3,Win32,59.99880002,,
,,,,,,,,,,,,,,,,,0.309259259,-0.125925926,1,0,0,image_8,0,47,47,48,1,1566,A man standing next to a fence with a bike.,M,0,5,MSR-VTT-videoTestVideo_video8356-shot1_7,Images/MSR-VTT-videoTestVideo_video8356-shot1_7/img555.jpg,Images/MSR-VTT-videoTestVideo_video8356-shot1_7/img565.jpg,Images/MSR-VTT-videoTestVideo_video8356-shot1_7/img567.jpg,Images/MSR-VTT-videoTestVideo_video8356-shot1_7/img569.jpg,Images/MSR-VTT-videoTestVideo_video8356-shot1_7/img575.jpg,Images/MSR-VTT-videoTestVideo_video8356-shot1_7/img578.jpg,Images/MSR-VTT-videoTestVideo_video8356-shot1_7/img584.jpg,Images/MSR-VTT-videoTestVideo_video8356-shot1_7/img586.jpg,Images/MSR-VTT-videoTestVideo_video8356-shot1_7/img593.jpg,Images/MSR-VTT-videoTestVideo_video8356-shot1_7/img601.jpg,1455,16,0,2022-06-15_11h43.13.317,annotation,2021.2.3,Win32,59.99880002,,
,,,,,,,,,,,,,,,,,0.487037037,-0.169444444,1,0,0,image_9,0,48,48,30,1,1280,A couple of people standing next to each other on a bus.,M,0,3,MSR-VTT-videoTestVideo_video8954-shot1_6,Images/MSR-VTT-videoTestVideo_video8954-shot1_6/img464.jpg,Images/MSR-VTT-videoTestVideo_video8954-shot1_6/img467.jpg,Images/MSR-VTT-videoTestVideo_video8954-shot1_6/img469.jpg,Images/MSR-VTT-videoTestVideo_video8954-shot1_6/img471.jpg,Images/MSR-VTT-videoTestVideo_video8954-shot1_6/img475.jpg,Images/MSR-VTT-videoTestVideo_video8954-shot1_6/img480.jpg,Images/MSR-VTT-videoTestVideo_video8954-shot1_6/img490.jpg,Images/MSR-VTT-videoTestVideo_video8954-shot1_6/img495.jpg,Images/MSR-VTT-videoTestVideo_video8954-shot1_6/img497.jpg,Images/MSR-VTT-videoTestVideo_video8954-shot1_6/img501.jpg,39,16,0,2022-06-15_11h43.13.317,annotation,2021.2.3,Win32,59.99880002,,
,,,,,,,,,,,,,,,,,0,-0.135185185,1,0,0,image_7,0,49,49,44,1,583,The boy in the striped shirt is leaning against a mattress. The boy's head and hair can be all seen. ,H,0,7,MSR-VTT-videoTestVideo_video9276-shot1_0,Images/MSR-VTT-videoTestVideo_video9276-shot1_0/img1.jpg,Images/MSR-VTT-videoTestVideo_video9276-shot1_0/img3.jpg,Images/MSR-VTT-videoTestVideo_video9276-shot1_0/img8.jpg,Images/MSR-VTT-videoTestVideo_video9276-shot1_0/img10.jpg,Images/MSR-VTT-videoTestVideo_video9276-shot1_0/img13.jpg,Images/MSR-VTT-videoTestVideo_video9276-shot1_0/img15.jpg,Images/MSR-VTT-videoTestVideo_video9276-shot1_0/img17.jpg,Images/MSR-VTT-videoTestVideo_video9276-shot1_0/img20.jpg,Images/MSR-VTT-videoTestVideo_video9276-shot1_0/img21.jpg,Images/MSR-VTT-videoTestVideo_video9276-shot1_0/img22.jpg,1222,16,0,2022-06-15_11h43.13.317,annotation,2021.2.3,Win32,59.99880002,,
,,,,,,,,,,,,,,,,,0.564814815,0.12037037,1,0,0,image_4,0,50,50,5,1,827,The horse on the right has it's ear covered by the logo in the corner.,H,0,4,MSR-VTT-videoTestVideo_video9248-shot0_1,Images/MSR-VTT-videoTestVideo_video9248-shot0_1/img62.jpg,Images/MSR-VTT-videoTestVideo_video9248-shot0_1/img71.jpg,Images/MSR-VTT-videoTestVideo_video9248-shot0_1/img88.jpg,Images/MSR-VTT-videoTestVideo_video9248-shot0_1/img92.jpg,Images/MSR-VTT-videoTestVideo_video9248-shot0_1/img98.jpg,Images/MSR-VTT-videoTestVideo_video9248-shot0_1/img125.jpg,Images/MSR-VTT-videoTestVideo_video9248-shot0_1/img147.jpg,Images/MSR-VTT-videoTestVideo_video9248-shot0_1/img153.jpg,Images/MSR-VTT-videoTestVideo_video9248-shot0_1/img163.jpg,Images/MSR-VTT-videoTestVideo_video9248-shot0_1/img193.jpg,1271,16,0,2022-06-15_11h43.13.317,annotation,2021.2.3,Win32,59.99880002,,
,,,,,,,,,,,,,,,,,-0.027777778,0.160185185,1,0,0,image_2,0,51,51,61,1,3,A grey elephant with golden leaves on it. ,H,,2,open-images-1745_0ed62fe71809b2f5,Checks/check4/open-images-2609_3f72daeb23764ecfimg6.jpg,Checks/check4/open-images-1928_60679e2899870e08img1.jpg,Checks/check4/open-images-1745_0ed62fe71809b2f5img2.jpg,Checks/check4/open-images-1811_9ae6351c7f7565edimg0.jpg,Checks/check4/open-images-1721_6f04da11945ea492img3.jpg,Checks/check4/open-images-1907_5f9be3e4ea5e22c7img2.jpg,Checks/check4/open-images-580_0ddffb9c25141999img1.jpg,Checks/check4/open-images-2924_0645dcbcf998fed9img3.jpg,Checks/check4/open-images-869_856ecbcb5faf76e3img8.jpg,Checks/check4/open-images-250_02039517e63a91fbimg1.jpg,,,1,2022-06-15_11h43.13.317,annotation,2021.2.3,Win32,59.99880002,,
,,,,,,,,,,,,,,,,,0.540740741,0.125,1,0,0,image_4,0,52,52,33,1,998,The tip of the bottle held by the baby nearly lines up with the check of the girl in the foreground,H,0,4,video-storytelling-videochristmas_5RR_sRzKODA-shot30_6,Images/video-storytelling-videochristmas_5RR_sRzKODA-shot30_6/img345.jpg,Images/video-storytelling-videochristmas_5RR_sRzKODA-shot30_6/img349.jpg,Images/video-storytelling-videochristmas_5RR_sRzKODA-shot30_6/img350.jpg,Images/video-storytelling-videochristmas_5RR_sRzKODA-shot30_6/img352.jpg,Images/video-storytelling-videochristmas_5RR_sRzKODA-shot30_6/img358.jpg,Images/video-storytelling-videochristmas_5RR_sRzKODA-shot30_6/img361.jpg,Images/video-storytelling-videochristmas_5RR_sRzKODA-shot30_6/img365.jpg,Images/video-storytelling-videochristmas_5RR_sRzKODA-shot30_6/img383.jpg,Images/video-storytelling-videochristmas_5RR_sRzKODA-shot30_6/img387.jpg,Images/video-storytelling-videochristmas_5RR_sRzKODA-shot30_6/img393.jpg,671,16,0,2022-06-15_11h43.13.317,annotation,2021.2.3,Win32,59.99880002,,
,,,,,,,,,,,,,,,,,-0.011111111,0.165740741,1,0,0,image_2,0,53,53,24,1,53,A spoon is mixing in a bowl. You can see a woman's pointer finger and thumb.,H,0,1,YouCook-video0097-shot9_0,Images/YouCook-video0097-shot9_0/img0.jpg,Images/YouCook-video0097-shot9_0/img11.jpg,Images/YouCook-video0097-shot9_0/img48.jpg,Images/YouCook-video0097-shot9_0/img51.jpg,Images/YouCook-video0097-shot9_0/img54.jpg,Images/YouCook-video0097-shot9_0/img57.jpg,Images/YouCook-video0097-shot9_0/img58.jpg,Images/YouCook-video0097-shot9_0/img59.jpg,Images/YouCook-video0097-shot9_0/img62.jpg,Images/YouCook-video0097-shot9_0/img76.jpg,478,16,0,2022-06-15_11h43.13.317,annotation,2021.2.3,Win32,59.99880002,,
,,,,,,,,,,,,,,,,,0.009259259,0.137037037,1,0,0,image_2,0,54,54,37,1,757,There is a man at the center of the image.  The very top of his head is cut off at the top of the image.  He is just starting to block a graphic on the back wall behind him. Most of the graphic is seen to his left. ,H,0,2,MSR-VTT-videoTestVideo_video9003-shot1_1,Images/MSR-VTT-videoTestVideo_video9003-shot1_1/img28.jpg,Images/MSR-VTT-videoTestVideo_video9003-shot1_1/img34.jpg,Images/MSR-VTT-videoTestVideo_video9003-shot1_1/img37.jpg,Images/MSR-VTT-videoTestVideo_video9003-shot1_1/img41.jpg,Images/MSR-VTT-videoTestVideo_video9003-shot1_1/img43.jpg,Images/MSR-VTT-videoTestVideo_video9003-shot1_1/img45.jpg,Images/MSR-VTT-videoTestVideo_video9003-shot1_1/img46.jpg,Images/MSR-VTT-videoTestVideo_video9003-shot1_1/img47.jpg,Images/MSR-VTT-videoTestVideo_video9003-shot1_1/img48.jpg,Images/MSR-VTT-videoTestVideo_video9003-shot1_1/img49.jpg,1549,16,0,2022-06-15_11h43.13.317,annotation,2021.2.3,Win32,59.99880002,,
,,,,,,,,,,,,,,,,,0.030555556,-0.10462963,1,0,0,image_7,0,55,55,3,1,1843,A man holding a loaf of bread on a kitchen counter.,M,0,4,YouCook-video0017-shot13_0,Images/YouCook-video0017-shot13_0/img0.jpg,Images/YouCook-video0017-shot13_0/img3.jpg,Images/YouCook-video0017-shot13_0/img10.jpg,Images/YouCook-video0017-shot13_0/img13.jpg,Images/YouCook-video0017-shot13_0/img17.jpg,Images/YouCook-video0017-shot13_0/img21.jpg,Images/YouCook-video0017-shot13_0/img26.jpg,Images/YouCook-video0017-shot13_0/img30.jpg,Images/YouCook-video0017-shot13_0/img33.jpg,Images/YouCook-video0017-shot13_0/img37.jpg,384,16,0,2022-06-15_11h43.13.317,annotation,2021.2.3,Win32,59.99880002,,
,,,,,,,,,,,,,,,,,-0.225925926,0.189814815,1,0,0,image_1,0,56,56,8,1,845,The man's hands are fully visible but blurry,H,0,1,MSR-VTT-videoTestVideo_video9379-shot1_1,Images/MSR-VTT-videoTestVideo_video9379-shot1_1/img92.jpg,Images/MSR-VTT-videoTestVideo_video9379-shot1_1/img95.jpg,Images/MSR-VTT-videoTestVideo_video9379-shot1_1/img98.jpg,Images/MSR-VTT-videoTestVideo_video9379-shot1_1/img103.jpg,Images/MSR-VTT-videoTestVideo_video9379-shot1_1/img116.jpg,Images/MSR-VTT-videoTestVideo_video9379-shot1_1/img123.jpg,Images/MSR-VTT-videoTestVideo_video9379-shot1_1/img131.jpg,Images/MSR-VTT-videoTestVideo_video9379-shot1_1/img137.jpg,Images/MSR-VTT-videoTestVideo_video9379-shot1_1/img143.jpg,Images/MSR-VTT-videoTestVideo_video9379-shot1_1/img154.jpg,297,16,0,2022-06-15_11h43.13.317,annotation,2021.2.3,Win32,59.99880002,,
,,,,,,,,,,,,,,,,,-0.532407407,0.163888889,1,0,0,image_0,0,57,57,11,1,952,The yellow logo at the lower right corner is cut off right at the middle. ,H,0,3,MSR-VTT-videoTestVideo_video9363-shot2_1,Images/MSR-VTT-videoTestVideo_video9363-shot2_1/img27.jpg,Images/MSR-VTT-videoTestVideo_video9363-shot2_1/img28.jpg,Images/MSR-VTT-videoTestVideo_video9363-shot2_1/img31.jpg,Images/MSR-VTT-videoTestVideo_video9363-shot2_1/img33.jpg,Images/MSR-VTT-videoTestVideo_video9363-shot2_1/img37.jpg,Images/MSR-VTT-videoTestVideo_video9363-shot2_1/img42.jpg,Images/MSR-VTT-videoTestVideo_video9363-shot2_1/img44.jpg,Images/MSR-VTT-videoTestVideo_video9363-shot2_1/img46.jpg,Images/MSR-VTT-videoTestVideo_video9363-shot2_1/img55.jpg,Images/MSR-VTT-videoTestVideo_video9363-shot2_1/img61.jpg,811,16,0,2022-06-15_11h43.13.317,annotation,2021.2.3,Win32,59.99880002,,
,,,,,,,,,,,,,,,,,-0.499074074,0.187037037,1,0,0,image_0,0,58,58,17,1,1805,A photo of a person standing in front of a light source.,M,0,2,MSR-VTT-videoTestVideo_video8027-shot1_1,Images/MSR-VTT-videoTestVideo_video8027-shot1_1/img74.jpg,Images/MSR-VTT-videoTestVideo_video8027-shot1_1/img75.jpg,Images/MSR-VTT-videoTestVideo_video8027-shot1_1/img78.jpg,Images/MSR-VTT-videoTestVideo_video8027-shot1_1/img84.jpg,Images/MSR-VTT-videoTestVideo_video8027-shot1_1/img86.jpg,Images/MSR-VTT-videoTestVideo_video8027-shot1_1/img90.jpg,Images/MSR-VTT-videoTestVideo_video8027-shot1_1/img94.jpg,Images/MSR-VTT-videoTestVideo_video8027-shot1_1/img98.jpg,Images/MSR-VTT-videoTestVideo_video8027-shot1_1/img140.jpg,Images/MSR-VTT-videoTestVideo_video8027-shot1_1/img159.jpg,757,16,0,2022-06-15_11h43.13.317,annotation,2021.2.3,Win32,59.99880002,,
,,,,,,,,,,,,,,,,,-0.200925926,-0.110185185,1,0,0,image_6,0,59,59,34,1,608,The far left side of the woman's head in the foreground on the left has just disappeared off the left side of the image. ,H,0,6,MSR-VTT-videoTestVideo_video8476-shot1_4,Images/MSR-VTT-videoTestVideo_video8476-shot1_4/img162.jpg,Images/MSR-VTT-videoTestVideo_video8476-shot1_4/img166.jpg,Images/MSR-VTT-videoTestVideo_video8476-shot1_4/img167.jpg,Images/MSR-VTT-videoTestVideo_video8476-shot1_4/img168.jpg,Images/MSR-VTT-videoTestVideo_video8476-shot1_4/img170.jpg,Images/MSR-VTT-videoTestVideo_video8476-shot1_4/img172.jpg,Images/MSR-VTT-videoTestVideo_video8476-shot1_4/img174.jpg,Images/MSR-VTT-videoTestVideo_video8476-shot1_4/img175.jpg,Images/MSR-VTT-videoTestVideo_video8476-shot1_4/img178.jpg,Images/MSR-VTT-videoTestVideo_video8476-shot1_4/img180.jpg,254,16,0,2022-06-15_11h43.13.317,annotation,2021.2.3,Win32,59.99880002,,
,,,,,,,,,,,,,,,,,-0.227777778,-0.112037037,1,0,0,image_6,0,60,60,25,1,1565,A person is making sandwiches in a kitchen.,M,0,7,MSR-VTT-videoTestVideo_video8508-shot1_2,Images/MSR-VTT-videoTestVideo_video8508-shot1_2/img214.jpg,Images/MSR-VTT-videoTestVideo_video8508-shot1_2/img224.jpg,Images/MSR-VTT-videoTestVideo_video8508-shot1_2/img231.jpg,Images/MSR-VTT-videoTestVideo_video8508-shot1_2/img233.jpg,Images/MSR-VTT-videoTestVideo_video8508-shot1_2/img240.jpg,Images/MSR-VTT-videoTestVideo_video8508-shot1_2/img243.jpg,Images/MSR-VTT-videoTestVideo_video8508-shot1_2/img250.jpg,Images/MSR-VTT-videoTestVideo_video8508-shot1_2/img255.jpg,Images/MSR-VTT-videoTestVideo_video8508-shot1_2/img259.jpg,Images/MSR-VTT-videoTestVideo_video8508-shot1_2/img267.jpg,2042,16,0,2022-06-15_11h43.13.317,annotation,2021.2.3,Win32,59.99880002,,
,,,,,,,,,,,,,,,,,-0.226851852,0.142592593,1,0,0,image_1,0,61,61,14,1,715,Two hands are hovering above the meat with saran wrap covering the meat. ,H,0,1,YouCook-video0017-shot2_2,Images/YouCook-video0017-shot2_2/img130.jpg,Images/YouCook-video0017-shot2_2/img134.jpg,Images/YouCook-video0017-shot2_2/img139.jpg,Images/YouCook-video0017-shot2_2/img145.jpg,Images/YouCook-video0017-shot2_2/img146.jpg,Images/YouCook-video0017-shot2_2/img150.jpg,Images/YouCook-video0017-shot2_2/img151.jpg,Images/YouCook-video0017-shot2_2/img152.jpg,Images/YouCook-video0017-shot2_2/img155.jpg,Images/YouCook-video0017-shot2_2/img156.jpg,90,16,0,2022-06-15_11h43.13.317,annotation,2021.2.3,Win32,59.99880002,,
,,,,,,,,,,,,,,,,,-0.201851852,0.127777778,1,0,0,image_1,0,62,62,31,1,1051,A dog is playing with a prong on a yellow toothbrush.,M,0,2,MSR-VTT-videoTestVideo_video8282-shot1_1,Images/MSR-VTT-videoTestVideo_video8282-shot1_1/img21.jpg,Images/MSR-VTT-videoTestVideo_video8282-shot1_1/img22.jpg,Images/MSR-VTT-videoTestVideo_video8282-shot1_1/img25.jpg,Images/MSR-VTT-videoTestVideo_video8282-shot1_1/img27.jpg,Images/MSR-VTT-videoTestVideo_video8282-shot1_1/img30.jpg,Images/MSR-VTT-videoTestVideo_video8282-shot1_1/img31.jpg,Images/MSR-VTT-videoTestVideo_video8282-shot1_1/img33.jpg,Images/MSR-VTT-videoTestVideo_video8282-shot1_1/img36.jpg,Images/MSR-VTT-videoTestVideo_video8282-shot1_1/img37.jpg,Images/MSR-VTT-videoTestVideo_video8282-shot1_1/img39.jpg,1674,16,0,2022-06-15_11h43.13.317,annotation,2021.2.3,Win32,59.99880002,,
,,,,,,,,,,,,,,,,,,,,,,,,,,,,,,,,,,,,,,,,,,,,,,,2022-06-15_11h43.13.317,annotation,2021.2.3,Win32,59.99880002,space,12.658
