mturk,key_resp_2.keys,key_resp_2.rt,key_resp_3.keys,key_resp_3.rt,mouse_2.x,mouse_2.y,mouse_2.leftButton,mouse_2.midButton,mouse_2.rightButton,mouse_2.clicked_name,key_resp_5.keys,key_resp_5.rt,key_resp.keys,key_resp.rt,key_resp_6.keys,key_resp_6.rt,mouse.x,mouse.y,mouse.leftButton,mouse.midButton,mouse.rightButton,mouse.clicked_name,trials.thisRepN,trials.thisTrialN,trials.thisN,trials.thisIndex,trials.ran,N,caption,class_caption,model_guessed,target_idx,image_set,img1,img2,img3,img4,img5,img6,img7,img8,img9,img10,Q_id,block,is_check,date,expName,psychopyVersion,OS,frameRate,key_resp_7.keys,key_resp_7.rt
7882479,space,6.825,space,6.456,0.23046875,0.100260417,1,0,0,ex4,space,10.049,space,4.637,space,2.076,0.21484375,0.16796875,1,0,0,image_3,0,0,0,47,1,98,A man is looking up and to the left. His mouth is slightly open. The light is not touching any part of his nose. ,H,0,2,MSR-VTT-videoTestVideo_video7055-shot6_0,Images/MSR-VTT-videoTestVideo_video7055-shot6_0/img0.jpg,Images/MSR-VTT-videoTestVideo_video7055-shot6_0/img7.jpg,Images/MSR-VTT-videoTestVideo_video7055-shot6_0/img22.jpg,Images/MSR-VTT-videoTestVideo_video7055-shot6_0/img41.jpg,Images/MSR-VTT-videoTestVideo_video7055-shot6_0/img54.jpg,Images/MSR-VTT-videoTestVideo_video7055-shot6_0/img55.jpg,Images/MSR-VTT-videoTestVideo_video7055-shot6_0/img61.jpg,Images/MSR-VTT-videoTestVideo_video7055-shot6_0/img66.jpg,Images/MSR-VTT-videoTestVideo_video7055-shot6_0/img70.jpg,Images/MSR-VTT-videoTestVideo_video7055-shot6_0/img74.jpg,692,5,0,2022-06-15_11h41.36.272,annotation,2021.2.3,Win32,32,,
,,,,,,,,,,,,,,,,,-0.446614583,0.141927083,1,0,0,image_0,0,1,1,51,1,1496,A man standing in front of a green lawn.,M,0,3,video-storytelling-videocamping_dBXYM3dQTSo-shot72_5,Images/video-storytelling-videocamping_dBXYM3dQTSo-shot72_5/img301.jpg,Images/video-storytelling-videocamping_dBXYM3dQTSo-shot72_5/img306.jpg,Images/video-storytelling-videocamping_dBXYM3dQTSo-shot72_5/img308.jpg,Images/video-storytelling-videocamping_dBXYM3dQTSo-shot72_5/img310.jpg,Images/video-storytelling-videocamping_dBXYM3dQTSo-shot72_5/img312.jpg,Images/video-storytelling-videocamping_dBXYM3dQTSo-shot72_5/img317.jpg,Images/video-storytelling-videocamping_dBXYM3dQTSo-shot72_5/img322.jpg,Images/video-storytelling-videocamping_dBXYM3dQTSo-shot72_5/img326.jpg,Images/video-storytelling-videocamping_dBXYM3dQTSo-shot72_5/img329.jpg,Images/video-storytelling-videocamping_dBXYM3dQTSo-shot72_5/img335.jpg,883,5,0,2022-06-15_11h41.36.272,annotation,2021.2.3,Win32,32,,
,,,,,,,,,,,,,,,,,-0.462239583,0.16015625,1,0,0,image_0,0,2,2,56,1,136,the back legs of the animal are covered by the grey block,H,0,5,MSR-VTT-videoTestVideo_video9903-shot1_3,Images/MSR-VTT-videoTestVideo_video9903-shot1_3/img94.jpg,Images/MSR-VTT-videoTestVideo_video9903-shot1_3/img99.jpg,Images/MSR-VTT-videoTestVideo_video9903-shot1_3/img103.jpg,Images/MSR-VTT-videoTestVideo_video9903-shot1_3/img106.jpg,Images/MSR-VTT-videoTestVideo_video9903-shot1_3/img109.jpg,Images/MSR-VTT-videoTestVideo_video9903-shot1_3/img116.jpg,Images/MSR-VTT-videoTestVideo_video9903-shot1_3/img118.jpg,Images/MSR-VTT-videoTestVideo_video9903-shot1_3/img139.jpg,Images/MSR-VTT-videoTestVideo_video9903-shot1_3/img141.jpg,Images/MSR-VTT-videoTestVideo_video9903-shot1_3/img144.jpg,1952,5,0,2022-06-15_11h41.36.272,annotation,2021.2.3,Win32,32,,
,,,,,,,,,,,,,,,,,-0.506510417,-0.123697917,1,0,0,image_5,0,3,3,16,1,1879,A man standing in front of a house with a frisbee.,M,0,2,video-storytelling-videocamping_dBXYM3dQTSo-shot72_5,Images/video-storytelling-videocamping_dBXYM3dQTSo-shot72_5/img301.jpg,Images/video-storytelling-videocamping_dBXYM3dQTSo-shot72_5/img306.jpg,Images/video-storytelling-videocamping_dBXYM3dQTSo-shot72_5/img308.jpg,Images/video-storytelling-videocamping_dBXYM3dQTSo-shot72_5/img310.jpg,Images/video-storytelling-videocamping_dBXYM3dQTSo-shot72_5/img312.jpg,Images/video-storytelling-videocamping_dBXYM3dQTSo-shot72_5/img317.jpg,Images/video-storytelling-videocamping_dBXYM3dQTSo-shot72_5/img322.jpg,Images/video-storytelling-videocamping_dBXYM3dQTSo-shot72_5/img326.jpg,Images/video-storytelling-videocamping_dBXYM3dQTSo-shot72_5/img329.jpg,Images/video-storytelling-videocamping_dBXYM3dQTSo-shot72_5/img335.jpg,898,5,0,2022-06-15_11h41.36.272,annotation,2021.2.3,Win32,32,,
,,,,,,,,,,,,,,,,,-0.014322917,-0.161458333,1,0,0,image_7,0,4,4,38,1,1225,A close up of a person wearing a shirt and pants.,M,0,9,MSR-VTT-videoTestVideo_video8703-shot1_0,Images/MSR-VTT-videoTestVideo_video8703-shot1_0/img0.jpg,Images/MSR-VTT-videoTestVideo_video8703-shot1_0/img10.jpg,Images/MSR-VTT-videoTestVideo_video8703-shot1_0/img20.jpg,Images/MSR-VTT-videoTestVideo_video8703-shot1_0/img88.jpg,Images/MSR-VTT-videoTestVideo_video8703-shot1_0/img99.jpg,Images/MSR-VTT-videoTestVideo_video8703-shot1_0/img125.jpg,Images/MSR-VTT-videoTestVideo_video8703-shot1_0/img139.jpg,Images/MSR-VTT-videoTestVideo_video8703-shot1_0/img142.jpg,Images/MSR-VTT-videoTestVideo_video8703-shot1_0/img155.jpg,Images/MSR-VTT-videoTestVideo_video8703-shot1_0/img162.jpg,727,5,0,2022-06-15_11h41.36.272,annotation,2021.2.3,Win32,32,,
,,,,,,,,,,,,,,,,,-0.203125,-0.1484375,1,0,0,image_6,0,5,5,27,1,2052,a close up of a woman with a cell phone in her hand.,M,1,3,MSR-VTT-videoTestVideo_video8904-shot1_1,Images/MSR-VTT-videoTestVideo_video8904-shot1_1/img67.jpg,Images/MSR-VTT-videoTestVideo_video8904-shot1_1/img86.jpg,Images/MSR-VTT-videoTestVideo_video8904-shot1_1/img92.jpg,Images/MSR-VTT-videoTestVideo_video8904-shot1_1/img120.jpg,Images/MSR-VTT-videoTestVideo_video8904-shot1_1/img123.jpg,Images/MSR-VTT-videoTestVideo_video8904-shot1_1/img128.jpg,Images/MSR-VTT-videoTestVideo_video8904-shot1_1/img147.jpg,Images/MSR-VTT-videoTestVideo_video8904-shot1_1/img157.jpg,Images/MSR-VTT-videoTestVideo_video8904-shot1_1/img161.jpg,Images/MSR-VTT-videoTestVideo_video8904-shot1_1/img168.jpg,463,5,0,2022-06-15_11h41.36.272,annotation,2021.2.3,Win32,32,,
,,,,,,,,,,,,,,,,,0.4765625,0.131510417,1,0,0,image_4,0,6,6,52,1,1603,A group of people standing on a beach.,M,0,6,video-storytelling-videocamping_1OzbiB1TIWI-shot14_6,Images/video-storytelling-videocamping_1OzbiB1TIWI-shot14_6/img922.jpg,Images/video-storytelling-videocamping_1OzbiB1TIWI-shot14_6/img930.jpg,Images/video-storytelling-videocamping_1OzbiB1TIWI-shot14_6/img932.jpg,Images/video-storytelling-videocamping_1OzbiB1TIWI-shot14_6/img943.jpg,Images/video-storytelling-videocamping_1OzbiB1TIWI-shot14_6/img949.jpg,Images/video-storytelling-videocamping_1OzbiB1TIWI-shot14_6/img955.jpg,Images/video-storytelling-videocamping_1OzbiB1TIWI-shot14_6/img958.jpg,Images/video-storytelling-videocamping_1OzbiB1TIWI-shot14_6/img967.jpg,Images/video-storytelling-videocamping_1OzbiB1TIWI-shot14_6/img969.jpg,Images/video-storytelling-videocamping_1OzbiB1TIWI-shot14_6/img973.jpg,1727,5,0,2022-06-15_11h41.36.272,annotation,2021.2.3,Win32,32,,
,,,,,,,,,,,,,,,,,0.23046875,0.173177083,1,0,0,image_3,0,7,7,54,1,1992,A cake with chocolate frosting on top of it.,M,0,8,YouCook-video0008-shot6_0,Images/YouCook-video0008-shot6_0/img0.jpg,Images/YouCook-video0008-shot6_0/img17.jpg,Images/YouCook-video0008-shot6_0/img46.jpg,Images/YouCook-video0008-shot6_0/img64.jpg,Images/YouCook-video0008-shot6_0/img114.jpg,Images/YouCook-video0008-shot6_0/img118.jpg,Images/YouCook-video0008-shot6_0/img143.jpg,Images/YouCook-video0008-shot6_0/img150.jpg,Images/YouCook-video0008-shot6_0/img171.jpg,Images/YouCook-video0008-shot6_0/img251.jpg,16,5,0,2022-06-15_11h41.36.272,annotation,2021.2.3,Win32,32,,
,,,,,,,,,,,,,,,,,0.229166667,-0.174479167,1,0,0,image_8,0,8,8,50,1,1132,A man in a suit and tie standing in front of a wall.,M,0,7,MSR-VTT-videoTestVideo_video8777-shot1_1,Images/MSR-VTT-videoTestVideo_video8777-shot1_1/img95.jpg,Images/MSR-VTT-videoTestVideo_video8777-shot1_1/img230.jpg,Images/MSR-VTT-videoTestVideo_video8777-shot1_1/img231.jpg,Images/MSR-VTT-videoTestVideo_video8777-shot1_1/img232.jpg,Images/MSR-VTT-videoTestVideo_video8777-shot1_1/img237.jpg,Images/MSR-VTT-videoTestVideo_video8777-shot1_1/img243.jpg,Images/MSR-VTT-videoTestVideo_video8777-shot1_1/img253.jpg,Images/MSR-VTT-videoTestVideo_video8777-shot1_1/img283.jpg,Images/MSR-VTT-videoTestVideo_video8777-shot1_1/img305.jpg,Images/MSR-VTT-videoTestVideo_video8777-shot1_1/img308.jpg,1718,5,0,2022-06-15_11h41.36.272,annotation,2021.2.3,Win32,32,,
,,,,,,,,,,,,,,,,,-0.49609375,0.157552083,1,0,0,image_0,0,9,9,14,1,403,The man's face is visible but very blurry.  He is punching downward but you can't see any of his elbow because it is blocked by his fist.  His fist is visible but blurry. ,H,0,2,MSR-VTT-videoTestVideo_video7686-shot3_0,Images/MSR-VTT-videoTestVideo_video7686-shot3_0/img0.jpg,Images/MSR-VTT-videoTestVideo_video7686-shot3_0/img1.jpg,Images/MSR-VTT-videoTestVideo_video7686-shot3_0/img2.jpg,Images/MSR-VTT-videoTestVideo_video7686-shot3_0/img4.jpg,Images/MSR-VTT-videoTestVideo_video7686-shot3_0/img5.jpg,Images/MSR-VTT-videoTestVideo_video7686-shot3_0/img7.jpg,Images/MSR-VTT-videoTestVideo_video7686-shot3_0/img9.jpg,Images/MSR-VTT-videoTestVideo_video7686-shot3_0/img12.jpg,Images/MSR-VTT-videoTestVideo_video7686-shot3_0/img13.jpg,Images/MSR-VTT-videoTestVideo_video7686-shot3_0/img15.jpg,1202,5,0,2022-06-15_11h41.36.272,annotation,2021.2.3,Win32,32,,
,,,,,,,,,,,,,,,,,0.29296875,-0.158854167,1,0,0,image_8,0,10,10,33,1,514,There is a knot in a string and the large loop on the knot is just barely touching the lower part of the picture. ,H,0,8,video-storytelling-videocamping_EytINruY3-U-shot31_1,Images/video-storytelling-videocamping_EytINruY3-U-shot31_1/img204.jpg,Images/video-storytelling-videocamping_EytINruY3-U-shot31_1/img205.jpg,Images/video-storytelling-videocamping_EytINruY3-U-shot31_1/img250.jpg,Images/video-storytelling-videocamping_EytINruY3-U-shot31_1/img268.jpg,Images/video-storytelling-videocamping_EytINruY3-U-shot31_1/img330.jpg,Images/video-storytelling-videocamping_EytINruY3-U-shot31_1/img411.jpg,Images/video-storytelling-videocamping_EytINruY3-U-shot31_1/img461.jpg,Images/video-storytelling-videocamping_EytINruY3-U-shot31_1/img492.jpg,Images/video-storytelling-videocamping_EytINruY3-U-shot31_1/img514.jpg,Images/video-storytelling-videocamping_EytINruY3-U-shot31_1/img535.jpg,1741,5,0,2022-06-15_11h41.36.272,annotation,2021.2.3,Win32,32,,
,,,,,,,,,,,,,,,,,0.290364583,-0.154947917,1,0,0,image_8,0,11,11,49,1,1005,"His hand rises up in front of his arm pit, held flat, palm visible.",H,0,8,MSR-VTT-videoTestVideo_video9021-shot3_0,Images/MSR-VTT-videoTestVideo_video9021-shot3_0/img0.jpg,Images/MSR-VTT-videoTestVideo_video9021-shot3_0/img5.jpg,Images/MSR-VTT-videoTestVideo_video9021-shot3_0/img12.jpg,Images/MSR-VTT-videoTestVideo_video9021-shot3_0/img16.jpg,Images/MSR-VTT-videoTestVideo_video9021-shot3_0/img20.jpg,Images/MSR-VTT-videoTestVideo_video9021-shot3_0/img27.jpg,Images/MSR-VTT-videoTestVideo_video9021-shot3_0/img34.jpg,Images/MSR-VTT-videoTestVideo_video9021-shot3_0/img42.jpg,Images/MSR-VTT-videoTestVideo_video9021-shot3_0/img55.jpg,Images/MSR-VTT-videoTestVideo_video9021-shot3_0/img67.jpg,703,5,0,2022-06-15_11h41.36.272,annotation,2021.2.3,Win32,32,,
,,,,,,,,,,,,,,,,,0.009114583,0.147135417,1,0,0,image_2,0,12,12,61,1,3,A grey elephant with golden leaves on it. ,H,,2,open-images-1745_0ed62fe71809b2f5,Checks/check4/open-images-2609_3f72daeb23764ecfimg6.jpg,Checks/check4/open-images-1928_60679e2899870e08img1.jpg,Checks/check4/open-images-1745_0ed62fe71809b2f5img2.jpg,Checks/check4/open-images-1811_9ae6351c7f7565edimg0.jpg,Checks/check4/open-images-1721_6f04da11945ea492img3.jpg,Checks/check4/open-images-1907_5f9be3e4ea5e22c7img2.jpg,Checks/check4/open-images-580_0ddffb9c25141999img1.jpg,Checks/check4/open-images-2924_0645dcbcf998fed9img3.jpg,Checks/check4/open-images-869_856ecbcb5faf76e3img8.jpg,Checks/check4/open-images-250_02039517e63a91fbimg1.jpg,,,1,2022-06-15_11h41.36.272,annotation,2021.2.3,Win32,32,,
,,,,,,,,,,,,,,,,,-0.026041667,-0.141927083,1,0,0,image_7,0,13,13,6,1,1694,A group of cooks in a kitchen preparing food.,M,0,2,MSR-VTT-videoTestVideo_video8129-shot1_3,Images/MSR-VTT-videoTestVideo_video8129-shot1_3/img421.jpg,Images/MSR-VTT-videoTestVideo_video8129-shot1_3/img425.jpg,Images/MSR-VTT-videoTestVideo_video8129-shot1_3/img435.jpg,Images/MSR-VTT-videoTestVideo_video8129-shot1_3/img441.jpg,Images/MSR-VTT-videoTestVideo_video8129-shot1_3/img446.jpg,Images/MSR-VTT-videoTestVideo_video8129-shot1_3/img450.jpg,Images/MSR-VTT-videoTestVideo_video8129-shot1_3/img454.jpg,Images/MSR-VTT-videoTestVideo_video8129-shot1_3/img457.jpg,Images/MSR-VTT-videoTestVideo_video8129-shot1_3/img462.jpg,Images/MSR-VTT-videoTestVideo_video8129-shot1_3/img464.jpg,529,5,0,2022-06-15_11h41.36.272,annotation,2021.2.3,Win32,32,,
,,,,,,,,,,,,,,,,,-0.42578125,0.139322917,1,0,0,image_0,0,14,14,2,1,1532,A woman is making a batter in a kitchen.,M,0,0,YouCook-video0058-shot9_0,Images/YouCook-video0058-shot9_0/img1.jpg,Images/YouCook-video0058-shot9_0/img41.jpg,Images/YouCook-video0058-shot9_0/img57.jpg,Images/YouCook-video0058-shot9_0/img59.jpg,Images/YouCook-video0058-shot9_0/img64.jpg,Images/YouCook-video0058-shot9_0/img86.jpg,Images/YouCook-video0058-shot9_0/img92.jpg,Images/YouCook-video0058-shot9_0/img121.jpg,Images/YouCook-video0058-shot9_0/img449.jpg,Images/YouCook-video0058-shot9_0/img452.jpg,1221,5,0,2022-06-15_11h41.36.272,annotation,2021.2.3,Win32,32,,
,,,,,,,,,,,,,,,,,0.49609375,0.134114583,1,0,0,image_4,0,15,15,10,1,1869,A person dressed up as a penguin with a hat on.,M,0,2,video-storytelling-videobirthday__amwPjAcoC8-shot13_2,Images/video-storytelling-videobirthday__amwPjAcoC8-shot13_2/img45.jpg,Images/video-storytelling-videobirthday__amwPjAcoC8-shot13_2/img47.jpg,Images/video-storytelling-videobirthday__amwPjAcoC8-shot13_2/img49.jpg,Images/video-storytelling-videobirthday__amwPjAcoC8-shot13_2/img50.jpg,Images/video-storytelling-videobirthday__amwPjAcoC8-shot13_2/img53.jpg,Images/video-storytelling-videobirthday__amwPjAcoC8-shot13_2/img58.jpg,Images/video-storytelling-videobirthday__amwPjAcoC8-shot13_2/img60.jpg,Images/video-storytelling-videobirthday__amwPjAcoC8-shot13_2/img61.jpg,Images/video-storytelling-videobirthday__amwPjAcoC8-shot13_2/img62.jpg,Images/video-storytelling-videobirthday__amwPjAcoC8-shot13_2/img64.jpg,1209,5,0,2022-06-15_11h41.36.272,annotation,2021.2.3,Win32,32,,
,,,,,,,,,,,,,,,,,-0.541666667,0.161458333,1,0,0,image_0,0,16,16,4,1,2059,A close up of a person holding a hair brush.,M,0,2,MSR-VTT-videoTestVideo_video9311-shot1_3,Images/MSR-VTT-videoTestVideo_video9311-shot1_3/img214.jpg,Images/MSR-VTT-videoTestVideo_video9311-shot1_3/img219.jpg,Images/MSR-VTT-videoTestVideo_video9311-shot1_3/img225.jpg,Images/MSR-VTT-videoTestVideo_video9311-shot1_3/img228.jpg,Images/MSR-VTT-videoTestVideo_video9311-shot1_3/img230.jpg,Images/MSR-VTT-videoTestVideo_video9311-shot1_3/img232.jpg,Images/MSR-VTT-videoTestVideo_video9311-shot1_3/img242.jpg,Images/MSR-VTT-videoTestVideo_video9311-shot1_3/img245.jpg,Images/MSR-VTT-videoTestVideo_video9311-shot1_3/img250.jpg,Images/MSR-VTT-videoTestVideo_video9311-shot1_3/img253.jpg,979,5,0,2022-06-15_11h41.36.272,annotation,2021.2.3,Win32,32,,
,,,,,,,,,,,,,,,,,-0.509114583,0.151041667,1,0,0,image_0,0,17,17,35,1,1749,A woman is sitting on top of a basketball court.,M,0,6,MSR-VTT-videoTestVideo_video8309-shot1_0,Images/MSR-VTT-videoTestVideo_video8309-shot1_0/img4.jpg,Images/MSR-VTT-videoTestVideo_video8309-shot1_0/img102.jpg,Images/MSR-VTT-videoTestVideo_video8309-shot1_0/img172.jpg,Images/MSR-VTT-videoTestVideo_video8309-shot1_0/img201.jpg,Images/MSR-VTT-videoTestVideo_video8309-shot1_0/img206.jpg,Images/MSR-VTT-videoTestVideo_video8309-shot1_0/img221.jpg,Images/MSR-VTT-videoTestVideo_video8309-shot1_0/img226.jpg,Images/MSR-VTT-videoTestVideo_video8309-shot1_0/img259.jpg,Images/MSR-VTT-videoTestVideo_video8309-shot1_0/img281.jpg,Images/MSR-VTT-videoTestVideo_video8309-shot1_0/img334.jpg,1806,5,0,2022-06-15_11h41.36.272,annotation,2021.2.3,Win32,32,,
,,,,,,,,,,,,,,,,,0.022135417,0.130208333,1,0,0,image_2,0,18,18,42,1,1833,a close up of some kind of food in a container.,M,0,7,YouCook-video0036-shot11_0,Images/YouCook-video0036-shot11_0/img0.jpg,Images/YouCook-video0036-shot11_0/img3.jpg,Images/YouCook-video0036-shot11_0/img7.jpg,Images/YouCook-video0036-shot11_0/img10.jpg,Images/YouCook-video0036-shot11_0/img12.jpg,Images/YouCook-video0036-shot11_0/img23.jpg,Images/YouCook-video0036-shot11_0/img26.jpg,Images/YouCook-video0036-shot11_0/img34.jpg,Images/YouCook-video0036-shot11_0/img40.jpg,Images/YouCook-video0036-shot11_0/img41.jpg,1716,5,0,2022-06-15_11h41.36.272,annotation,2021.2.3,Win32,32,,
,,,,,,,,,,,,,,,,,0.473958333,-0.130208333,1,0,0,image_9,0,19,19,60,1,2,Green type writer with a red tape. ,H,,9,open-images-531_0dd4eb59d465a8be,Checks/check3/open-images-503_1ccd6fa641154ebbimg7.jpg,Checks/check3/open-images-1852_00faf52058ad28b8img4.jpg,Checks/check3/open-images-386_1b2e28d6d994603eimg1.jpg,Checks/check3/open-images-471_1121e9f97c200ac0img8.jpg,Checks/check3/open-images-1886_3db71eaddb618934img8.jpg,Checks/check3/open-images-1696_20a4ebf0c0f76b05img6.jpg,Checks/check3/open-images-2447_128483a48e1552f4img6.jpg,Checks/check3/open-images-2994_9965cbf8aa20bda0img2.jpg,Checks/check3/open-images-1068_03d63613107970b3img6.jpg,Checks/check3/open-images-531_0dd4eb59d465a8beimg9.jpg,,,1,2022-06-15_11h41.36.272,annotation,2021.2.3,Win32,32,,
,,,,,,,,,,,,,,,,,0.466145833,-0.110677083,1,0,0,image_9,0,20,20,44,1,2018,Two women standing next to each other in a park.,M,0,2,video-storytelling-videocamping_1OzbiB1TIWI-shot5_2,Images/video-storytelling-videocamping_1OzbiB1TIWI-shot5_2/img138.jpg,Images/video-storytelling-videocamping_1OzbiB1TIWI-shot5_2/img142.jpg,Images/video-storytelling-videocamping_1OzbiB1TIWI-shot5_2/img143.jpg,Images/video-storytelling-videocamping_1OzbiB1TIWI-shot5_2/img151.jpg,Images/video-storytelling-videocamping_1OzbiB1TIWI-shot5_2/img155.jpg,Images/video-storytelling-videocamping_1OzbiB1TIWI-shot5_2/img160.jpg,Images/video-storytelling-videocamping_1OzbiB1TIWI-shot5_2/img170.jpg,Images/video-storytelling-videocamping_1OzbiB1TIWI-shot5_2/img173.jpg,Images/video-storytelling-videocamping_1OzbiB1TIWI-shot5_2/img177.jpg,Images/video-storytelling-videocamping_1OzbiB1TIWI-shot5_2/img179.jpg,1942,5,0,2022-06-15_11h41.36.272,annotation,2021.2.3,Win32,32,,
,,,,,,,,,,,,,,,,,0.264322917,0.154947917,1,0,0,image_3,0,21,21,57,1,956,The man's face has just come into view from behind the leaves.,H,0,2,video-storytelling-videowedding_46xhFCXBMJs-shot62_0,Images/video-storytelling-videowedding_46xhFCXBMJs-shot62_0/img0.jpg,Images/video-storytelling-videowedding_46xhFCXBMJs-shot62_0/img26.jpg,Images/video-storytelling-videowedding_46xhFCXBMJs-shot62_0/img41.jpg,Images/video-storytelling-videowedding_46xhFCXBMJs-shot62_0/img50.jpg,Images/video-storytelling-videowedding_46xhFCXBMJs-shot62_0/img71.jpg,Images/video-storytelling-videowedding_46xhFCXBMJs-shot62_0/img76.jpg,Images/video-storytelling-videowedding_46xhFCXBMJs-shot62_0/img78.jpg,Images/video-storytelling-videowedding_46xhFCXBMJs-shot62_0/img79.jpg,Images/video-storytelling-videowedding_46xhFCXBMJs-shot62_0/img81.jpg,Images/video-storytelling-videowedding_46xhFCXBMJs-shot62_0/img85.jpg,1959,5,0,2022-06-15_11h41.36.272,annotation,2021.2.3,Win32,32,,
,,,,,,,,,,,,,,,,,0.251302083,-0.13671875,1,0,0,image_8,0,22,22,25,1,1189,A young child is holding a video game controller.,M,0,5,MSR-VTT-videoTestVideo_video8058-shot1_0,Images/MSR-VTT-videoTestVideo_video8058-shot1_0/img0.jpg,Images/MSR-VTT-videoTestVideo_video8058-shot1_0/img18.jpg,Images/MSR-VTT-videoTestVideo_video8058-shot1_0/img33.jpg,Images/MSR-VTT-videoTestVideo_video8058-shot1_0/img37.jpg,Images/MSR-VTT-videoTestVideo_video8058-shot1_0/img73.jpg,Images/MSR-VTT-videoTestVideo_video8058-shot1_0/img103.jpg,Images/MSR-VTT-videoTestVideo_video8058-shot1_0/img153.jpg,Images/MSR-VTT-videoTestVideo_video8058-shot1_0/img188.jpg,Images/MSR-VTT-videoTestVideo_video8058-shot1_0/img191.jpg,Images/MSR-VTT-videoTestVideo_video8058-shot1_0/img195.jpg,1496,5,0,2022-06-15_11h41.36.272,annotation,2021.2.3,Win32,32,,
,,,,,,,,,,,,,,,,,-0.026041667,-0.15234375,1,0,0,image_7,0,23,23,17,1,106,This photo is blurry and the can held by the girl in green is against her face and only the left arm and left leg and small amount of the body can be seen on the person in the pink chair. ,H,0,1,video-storytelling-videocamping_1OzbiB1TIWI-shot11_11,Images/video-storytelling-videocamping_1OzbiB1TIWI-shot11_11/img478.jpg,Images/video-storytelling-videocamping_1OzbiB1TIWI-shot11_11/img479.jpg,Images/video-storytelling-videocamping_1OzbiB1TIWI-shot11_11/img480.jpg,Images/video-storytelling-videocamping_1OzbiB1TIWI-shot11_11/img482.jpg,Images/video-storytelling-videocamping_1OzbiB1TIWI-shot11_11/img486.jpg,Images/video-storytelling-videocamping_1OzbiB1TIWI-shot11_11/img506.jpg,Images/video-storytelling-videocamping_1OzbiB1TIWI-shot11_11/img509.jpg,Images/video-storytelling-videocamping_1OzbiB1TIWI-shot11_11/img510.jpg,Images/video-storytelling-videocamping_1OzbiB1TIWI-shot11_11/img513.jpg,Images/video-storytelling-videocamping_1OzbiB1TIWI-shot11_11/img519.jpg,1268,5,0,2022-06-15_11h41.36.272,annotation,2021.2.3,Win32,32,,
,,,,,,,,,,,,,,,,,0.036458333,0.145833333,1,0,0,image_2,0,24,24,12,1,553,The girl on the right has completed looking all the way up and at the camera. Her hair is partially covering her left eye and she has kind of a surprised look on her face.  Her mouth is open. ,H,0,5,video-storytelling-videobirthday_fwpYnUDbusw-shot8_0,Images/video-storytelling-videobirthday_fwpYnUDbusw-shot8_0/img0.jpg,Images/video-storytelling-videobirthday_fwpYnUDbusw-shot8_0/img3.jpg,Images/video-storytelling-videobirthday_fwpYnUDbusw-shot8_0/img14.jpg,Images/video-storytelling-videobirthday_fwpYnUDbusw-shot8_0/img38.jpg,Images/video-storytelling-videobirthday_fwpYnUDbusw-shot8_0/img42.jpg,Images/video-storytelling-videobirthday_fwpYnUDbusw-shot8_0/img54.jpg,Images/video-storytelling-videobirthday_fwpYnUDbusw-shot8_0/img61.jpg,Images/video-storytelling-videobirthday_fwpYnUDbusw-shot8_0/img67.jpg,Images/video-storytelling-videobirthday_fwpYnUDbusw-shot8_0/img72.jpg,Images/video-storytelling-videobirthday_fwpYnUDbusw-shot8_0/img79.jpg,1445,5,0,2022-06-15_11h41.36.272,annotation,2021.2.3,Win32,32,,
,,,,,,,,,,,,,,,,,0.489583333,-0.170572917,1,0,0,image_9,0,25,25,28,1,535,Two hands are pulling crab legs a part the right hand is peeling part of the shell back. A person in a blue shirt is being reflected the face is barely visible.,H,0,2,YouCook-video0023-shot1_1,Images/YouCook-video0023-shot1_1/img227.jpg,Images/YouCook-video0023-shot1_1/img254.jpg,Images/YouCook-video0023-shot1_1/img320.jpg,Images/YouCook-video0023-shot1_1/img322.jpg,Images/YouCook-video0023-shot1_1/img324.jpg,Images/YouCook-video0023-shot1_1/img326.jpg,Images/YouCook-video0023-shot1_1/img329.jpg,Images/YouCook-video0023-shot1_1/img332.jpg,Images/YouCook-video0023-shot1_1/img336.jpg,Images/YouCook-video0023-shot1_1/img341.jpg,678,5,0,2022-06-15_11h41.36.272,annotation,2021.2.3,Win32,32,,
,,,,,,,,,,,,,,,,,-0.221354167,-0.1484375,1,0,0,image_6,0,26,26,55,1,590,There is a van facing toward the right side. It is half hidden behind the people.,H,0,6,MSR-VTT-videoTestVideo_video8022-shot1_1,Images/MSR-VTT-videoTestVideo_video8022-shot1_1/img102.jpg,Images/MSR-VTT-videoTestVideo_video8022-shot1_1/img110.jpg,Images/MSR-VTT-videoTestVideo_video8022-shot1_1/img117.jpg,Images/MSR-VTT-videoTestVideo_video8022-shot1_1/img120.jpg,Images/MSR-VTT-videoTestVideo_video8022-shot1_1/img125.jpg,Images/MSR-VTT-videoTestVideo_video8022-shot1_1/img133.jpg,Images/MSR-VTT-videoTestVideo_video8022-shot1_1/img146.jpg,Images/MSR-VTT-videoTestVideo_video8022-shot1_1/img157.jpg,Images/MSR-VTT-videoTestVideo_video8022-shot1_1/img168.jpg,Images/MSR-VTT-videoTestVideo_video8022-shot1_1/img178.jpg,754,5,0,2022-06-15_11h41.36.272,annotation,2021.2.3,Win32,32,,
,,,,,,,,,,,,,,,,,0.221354167,0.147135417,1,0,0,image_3,0,27,27,45,1,1332,A couple of people sitting in a living room.,M,0,5,MSR-VTT-videoTestVideo_video8176-shot1_0,Images/MSR-VTT-videoTestVideo_video8176-shot1_0/img0.jpg,Images/MSR-VTT-videoTestVideo_video8176-shot1_0/img54.jpg,Images/MSR-VTT-videoTestVideo_video8176-shot1_0/img73.jpg,Images/MSR-VTT-videoTestVideo_video8176-shot1_0/img88.jpg,Images/MSR-VTT-videoTestVideo_video8176-shot1_0/img109.jpg,Images/MSR-VTT-videoTestVideo_video8176-shot1_0/img110.jpg,Images/MSR-VTT-videoTestVideo_video8176-shot1_0/img112.jpg,Images/MSR-VTT-videoTestVideo_video8176-shot1_0/img114.jpg,Images/MSR-VTT-videoTestVideo_video8176-shot1_0/img139.jpg,Images/MSR-VTT-videoTestVideo_video8176-shot1_0/img146.jpg,1717,5,0,2022-06-15_11h41.36.272,annotation,2021.2.3,Win32,32,,
,,,,,,,,,,,,,,,,,0.48046875,-0.174479167,1,0,0,image_9,0,28,28,19,1,475,"The mixed batter is in the center of the metal sheet under it, with both of the person's hands mostly visible. ",H,0,4,YouCook-video0008-shot2_1,Images/YouCook-video0008-shot2_1/img340.jpg,Images/YouCook-video0008-shot2_1/img343.jpg,Images/YouCook-video0008-shot2_1/img347.jpg,Images/YouCook-video0008-shot2_1/img350.jpg,Images/YouCook-video0008-shot2_1/img352.jpg,Images/YouCook-video0008-shot2_1/img377.jpg,Images/YouCook-video0008-shot2_1/img387.jpg,Images/YouCook-video0008-shot2_1/img403.jpg,Images/YouCook-video0008-shot2_1/img405.jpg,Images/YouCook-video0008-shot2_1/img422.jpg,1505,5,0,2022-06-15_11h41.36.272,annotation,2021.2.3,Win32,32,,
,,,,,,,,,,,,,,,,,0.229166667,0.143229167,1,0,0,image_3,0,29,29,15,1,747,The child has their hand at the bottom right of the box with the toy with his thumb on the green button,H,0,8,video-storytelling-videobirthday__amwPjAcoC8-shot34_0,Images/video-storytelling-videobirthday__amwPjAcoC8-shot34_0/img0.jpg,Images/video-storytelling-videobirthday__amwPjAcoC8-shot34_0/img2.jpg,Images/video-storytelling-videobirthday__amwPjAcoC8-shot34_0/img4.jpg,Images/video-storytelling-videobirthday__amwPjAcoC8-shot34_0/img9.jpg,Images/video-storytelling-videobirthday__amwPjAcoC8-shot34_0/img12.jpg,Images/video-storytelling-videobirthday__amwPjAcoC8-shot34_0/img14.jpg,Images/video-storytelling-videobirthday__amwPjAcoC8-shot34_0/img19.jpg,Images/video-storytelling-videobirthday__amwPjAcoC8-shot34_0/img28.jpg,Images/video-storytelling-videobirthday__amwPjAcoC8-shot34_0/img36.jpg,Images/video-storytelling-videobirthday__amwPjAcoC8-shot34_0/img40.jpg,465,5,0,2022-06-15_11h41.36.272,annotation,2021.2.3,Win32,32,,
,,,,,,,,,,,,,,,,,-0.3125,0.12890625,1,0,0,image_1,0,30,30,11,1,91,Text at bottom is only just starting to fade.,H,0,6,MSR-VTT-videoTestVideo_video8955-shot3_3,Images/MSR-VTT-videoTestVideo_video8955-shot3_3/img109.jpg,Images/MSR-VTT-videoTestVideo_video8955-shot3_3/img113.jpg,Images/MSR-VTT-videoTestVideo_video8955-shot3_3/img122.jpg,Images/MSR-VTT-videoTestVideo_video8955-shot3_3/img128.jpg,Images/MSR-VTT-videoTestVideo_video8955-shot3_3/img137.jpg,Images/MSR-VTT-videoTestVideo_video8955-shot3_3/img141.jpg,Images/MSR-VTT-videoTestVideo_video8955-shot3_3/img148.jpg,Images/MSR-VTT-videoTestVideo_video8955-shot3_3/img149.jpg,Images/MSR-VTT-videoTestVideo_video8955-shot3_3/img150.jpg,Images/MSR-VTT-videoTestVideo_video8955-shot3_3/img152.jpg,1131,5,0,2022-06-15_11h41.36.272,annotation,2021.2.3,Win32,32,,
,,,,,,,,,,,,,,,,,0.518229167,0.109375,1,0,0,image_4,0,31,31,32,1,677,The black man is very blurry but still entirely on frame,H,0,3,MSR-VTT-videoTestVideo_video7490-shot3_0,Images/MSR-VTT-videoTestVideo_video7490-shot3_0/img0.jpg,Images/MSR-VTT-videoTestVideo_video7490-shot3_0/img3.jpg,Images/MSR-VTT-videoTestVideo_video7490-shot3_0/img6.jpg,Images/MSR-VTT-videoTestVideo_video7490-shot3_0/img10.jpg,Images/MSR-VTT-videoTestVideo_video7490-shot3_0/img12.jpg,Images/MSR-VTT-videoTestVideo_video7490-shot3_0/img15.jpg,Images/MSR-VTT-videoTestVideo_video7490-shot3_0/img18.jpg,Images/MSR-VTT-videoTestVideo_video7490-shot3_0/img23.jpg,Images/MSR-VTT-videoTestVideo_video7490-shot3_0/img25.jpg,Images/MSR-VTT-videoTestVideo_video7490-shot3_0/img29.jpg,1889,5,0,2022-06-15_11h41.36.272,annotation,2021.2.3,Win32,32,,
,,,,,,,,,,,,,,,,,0.223958333,0.127604167,1,0,0,image_3,0,32,32,46,1,2003,A man that is standing in front of a wall.,M,0,2,MSR-VTT-videoTestVideo_video8721-shot1_0,Images/MSR-VTT-videoTestVideo_video8721-shot1_0/img0.jpg,Images/MSR-VTT-videoTestVideo_video8721-shot1_0/img11.jpg,Images/MSR-VTT-videoTestVideo_video8721-shot1_0/img46.jpg,Images/MSR-VTT-videoTestVideo_video8721-shot1_0/img56.jpg,Images/MSR-VTT-videoTestVideo_video8721-shot1_0/img69.jpg,Images/MSR-VTT-videoTestVideo_video8721-shot1_0/img81.jpg,Images/MSR-VTT-videoTestVideo_video8721-shot1_0/img94.jpg,Images/MSR-VTT-videoTestVideo_video8721-shot1_0/img121.jpg,Images/MSR-VTT-videoTestVideo_video8721-shot1_0/img131.jpg,Images/MSR-VTT-videoTestVideo_video8721-shot1_0/img184.jpg,1950,5,0,2022-06-15_11h41.36.272,annotation,2021.2.3,Win32,32,,
,,,,,,,,,,,,,,,,,0.265625,-0.15234375,1,0,0,image_8,0,33,33,22,1,1748,A police officer standing next to a dog in a parking lot.,M,0,7,MSR-VTT-videoTestVideo_video8691-shot1_1,Images/MSR-VTT-videoTestVideo_video8691-shot1_1/img113.jpg,Images/MSR-VTT-videoTestVideo_video8691-shot1_1/img117.jpg,Images/MSR-VTT-videoTestVideo_video8691-shot1_1/img120.jpg,Images/MSR-VTT-videoTestVideo_video8691-shot1_1/img124.jpg,Images/MSR-VTT-videoTestVideo_video8691-shot1_1/img130.jpg,Images/MSR-VTT-videoTestVideo_video8691-shot1_1/img141.jpg,Images/MSR-VTT-videoTestVideo_video8691-shot1_1/img148.jpg,Images/MSR-VTT-videoTestVideo_video8691-shot1_1/img154.jpg,Images/MSR-VTT-videoTestVideo_video8691-shot1_1/img163.jpg,Images/MSR-VTT-videoTestVideo_video8691-shot1_1/img175.jpg,1172,5,0,2022-06-15_11h41.36.272,annotation,2021.2.3,Win32,32,,
,,,,,,,,,,,,,,,,,-0.279947917,-0.154947917,1,0,0,image_6,0,34,34,43,1,1973,A person standing next to a blue cup holder.,M,0,9,MSR-VTT-videoTestVideo_video9143-shot1_0,Images/MSR-VTT-videoTestVideo_video9143-shot1_0/img0.jpg,Images/MSR-VTT-videoTestVideo_video9143-shot1_0/img5.jpg,Images/MSR-VTT-videoTestVideo_video9143-shot1_0/img12.jpg,Images/MSR-VTT-videoTestVideo_video9143-shot1_0/img26.jpg,Images/MSR-VTT-videoTestVideo_video9143-shot1_0/img49.jpg,Images/MSR-VTT-videoTestVideo_video9143-shot1_0/img58.jpg,Images/MSR-VTT-videoTestVideo_video9143-shot1_0/img62.jpg,Images/MSR-VTT-videoTestVideo_video9143-shot1_0/img66.jpg,Images/MSR-VTT-videoTestVideo_video9143-shot1_0/img70.jpg,Images/MSR-VTT-videoTestVideo_video9143-shot1_0/img82.jpg,1860,5,0,2022-06-15_11h41.36.272,annotation,2021.2.3,Win32,32,,
,,,,,,,,,,,,,,,,,-0.022135417,0.145833333,1,0,0,image_2,0,35,35,58,1,0,Pair of black gloves,H,,2,open-images-510_3a241cb30d6e5319,Checks/check1/open-images-225_1442c0d0ef23d58bimg3.jpg,Checks/check1/open-images-2759_3a42708fe77398b7img8.jpg,Checks/check1/open-images-510_3a241cb30d6e5319img2.jpg,Checks/check1/open-images-2209_02c98146fb93ff17img1.jpg,Checks/check1/open-images-1553_0f128317e56a9d2fimg9.jpg,Checks/check1/open-images-2666_044d7c6d11e6b493img8.jpg,Checks/check1/open-images-2880_159294646083f545img4.jpg,Checks/check1/open-images-609_2dc0baa993a2bd25img5.jpg,Checks/check1/open-images-1854_2b15616b4f1080e7img2.jpg,Checks/check1/open-images-1435_1b0ce31951048765img8.jpg,,,1,2022-06-15_11h41.36.272,annotation,2021.2.3,Win32,32,,
,,,,,,,,,,,,,,,,,-0.4765625,-0.13671875,1,0,0,image_5,0,36,36,59,1,1,The only picture of a hawk.  It is looking to the left.  You see lots of branches and darker blue sky. ,H,,5,open-images-958_686caac9c5b322e7,Checks/check2/open-images-2603_1b5152f01f0093e7img3.jpg,Checks/check2/open-images-1836_069810916ce5d675img8.jpg,Checks/check2/open-images-974_0748fdedc4bf8b7bimg2.jpg,Checks/check2/open-images-617_01fb725fb1aa7b04img6.jpg,Checks/check2/open-images-507_047769e1f977cd97img2.jpg,Checks/check2/open-images-958_686caac9c5b322e7img5.jpg,Checks/check2/open-images-1278_21851d9bf5dc05c9img7.jpg,Checks/check2/open-images-2424_05f04546e01499f2img0.jpg,Checks/check2/open-images-1529_1442b11a10a6aeadimg3.jpg,Checks/check2/open-images-514_2c523ddedc2561d4img1.jpg,,,1,2022-06-15_11h41.36.272,annotation,2021.2.3,Win32,32,,
,,,,,,,,,,,,,,,,,0.239583333,-0.104166667,1,0,0,image_8,0,37,37,53,1,1052,A man standing next to a car that is parked in a parking lot.,M,1,2,MSR-VTT-videoTestVideo_video8560-shot1_3,Images/MSR-VTT-videoTestVideo_video8560-shot1_3/img252.jpg,Images/MSR-VTT-videoTestVideo_video8560-shot1_3/img256.jpg,Images/MSR-VTT-videoTestVideo_video8560-shot1_3/img265.jpg,Images/MSR-VTT-videoTestVideo_video8560-shot1_3/img268.jpg,Images/MSR-VTT-videoTestVideo_video8560-shot1_3/img275.jpg,Images/MSR-VTT-videoTestVideo_video8560-shot1_3/img281.jpg,Images/MSR-VTT-videoTestVideo_video8560-shot1_3/img287.jpg,Images/MSR-VTT-videoTestVideo_video8560-shot1_3/img298.jpg,Images/MSR-VTT-videoTestVideo_video8560-shot1_3/img302.jpg,Images/MSR-VTT-videoTestVideo_video8560-shot1_3/img311.jpg,1631,5,0,2022-06-15_11h41.36.272,annotation,2021.2.3,Win32,32,,
,,,,,,,,,,,,,,,,,-0.033854167,0.154947917,1,0,0,image_2,0,38,38,24,1,1788,A close up picture of a woman and her husband.,M,0,4,MSR-VTT-videoTestVideo_video7068-shot2_0,Images/MSR-VTT-videoTestVideo_video7068-shot2_0/img0.jpg,Images/MSR-VTT-videoTestVideo_video7068-shot2_0/img5.jpg,Images/MSR-VTT-videoTestVideo_video7068-shot2_0/img9.jpg,Images/MSR-VTT-videoTestVideo_video7068-shot2_0/img15.jpg,Images/MSR-VTT-videoTestVideo_video7068-shot2_0/img23.jpg,Images/MSR-VTT-videoTestVideo_video7068-shot2_0/img30.jpg,Images/MSR-VTT-videoTestVideo_video7068-shot2_0/img49.jpg,Images/MSR-VTT-videoTestVideo_video7068-shot2_0/img60.jpg,Images/MSR-VTT-videoTestVideo_video7068-shot2_0/img107.jpg,Images/MSR-VTT-videoTestVideo_video7068-shot2_0/img156.jpg,1319,5,0,2022-06-15_11h41.36.272,annotation,2021.2.3,Win32,32,,
,,,,,,,,,,,,,,,,,0.545572917,0.158854167,1,0,0,image_4,0,39,39,48,1,1853,A man standing next to a table full of food.,M,0,4,MSR-VTT-videoTestVideo_video8886-shot1_1,Images/MSR-VTT-videoTestVideo_video8886-shot1_1/img30.jpg,Images/MSR-VTT-videoTestVideo_video8886-shot1_1/img31.jpg,Images/MSR-VTT-videoTestVideo_video8886-shot1_1/img33.jpg,Images/MSR-VTT-videoTestVideo_video8886-shot1_1/img35.jpg,Images/MSR-VTT-videoTestVideo_video8886-shot1_1/img45.jpg,Images/MSR-VTT-videoTestVideo_video8886-shot1_1/img46.jpg,Images/MSR-VTT-videoTestVideo_video8886-shot1_1/img47.jpg,Images/MSR-VTT-videoTestVideo_video8886-shot1_1/img48.jpg,Images/MSR-VTT-videoTestVideo_video8886-shot1_1/img49.jpg,Images/MSR-VTT-videoTestVideo_video8886-shot1_1/img51.jpg,690,5,0,2022-06-15_11h41.36.272,annotation,2021.2.3,Win32,32,,
,,,,,,,,,,,,,,,,,-0.209635417,0.149739583,1,0,0,image_1,0,40,40,41,1,2011,A group of people standing next to each other.,M,0,5,MSR-VTT-videoTestVideo_video8209-shot1_0,Images/MSR-VTT-videoTestVideo_video8209-shot1_0/img0.jpg,Images/MSR-VTT-videoTestVideo_video8209-shot1_0/img6.jpg,Images/MSR-VTT-videoTestVideo_video8209-shot1_0/img7.jpg,Images/MSR-VTT-videoTestVideo_video8209-shot1_0/img11.jpg,Images/MSR-VTT-videoTestVideo_video8209-shot1_0/img15.jpg,Images/MSR-VTT-videoTestVideo_video8209-shot1_0/img18.jpg,Images/MSR-VTT-videoTestVideo_video8209-shot1_0/img21.jpg,Images/MSR-VTT-videoTestVideo_video8209-shot1_0/img25.jpg,Images/MSR-VTT-videoTestVideo_video8209-shot1_0/img41.jpg,Images/MSR-VTT-videoTestVideo_video8209-shot1_0/img130.jpg,1711,5,0,2022-06-15_11h41.36.272,annotation,2021.2.3,Win32,32,,
,,,,,,,,,,,,,,,,,-0.221354167,0.15234375,1,0,0,image_1,0,41,41,5,1,1771,a close up of a man with headphones on.,M,0,1,MSR-VTT-videoTestVideo_video9484-shot2_0,Images/MSR-VTT-videoTestVideo_video9484-shot2_0/img0.jpg,Images/MSR-VTT-videoTestVideo_video9484-shot2_0/img5.jpg,Images/MSR-VTT-videoTestVideo_video9484-shot2_0/img9.jpg,Images/MSR-VTT-videoTestVideo_video9484-shot2_0/img17.jpg,Images/MSR-VTT-videoTestVideo_video9484-shot2_0/img24.jpg,Images/MSR-VTT-videoTestVideo_video9484-shot2_0/img27.jpg,Images/MSR-VTT-videoTestVideo_video9484-shot2_0/img32.jpg,Images/MSR-VTT-videoTestVideo_video9484-shot2_0/img35.jpg,Images/MSR-VTT-videoTestVideo_video9484-shot2_0/img40.jpg,Images/MSR-VTT-videoTestVideo_video9484-shot2_0/img42.jpg,475,5,0,2022-06-15_11h41.36.272,annotation,2021.2.3,Win32,32,,
,,,,,,,,,,,,,,,,,0.5078125,0.1171875,1,0,0,image_4,0,42,42,3,1,820,Woman in the pink outfit can seen entirely in the curve of the arm of the man with the blond hair.,H,0,4,MSR-VTT-videoTestVideo_video7476-shot1_6,Images/MSR-VTT-videoTestVideo_video7476-shot1_6/img211.jpg,Images/MSR-VTT-videoTestVideo_video7476-shot1_6/img213.jpg,Images/MSR-VTT-videoTestVideo_video7476-shot1_6/img215.jpg,Images/MSR-VTT-videoTestVideo_video7476-shot1_6/img218.jpg,Images/MSR-VTT-videoTestVideo_video7476-shot1_6/img222.jpg,Images/MSR-VTT-videoTestVideo_video7476-shot1_6/img225.jpg,Images/MSR-VTT-videoTestVideo_video7476-shot1_6/img228.jpg,Images/MSR-VTT-videoTestVideo_video7476-shot1_6/img233.jpg,Images/MSR-VTT-videoTestVideo_video7476-shot1_6/img236.jpg,Images/MSR-VTT-videoTestVideo_video7476-shot1_6/img238.jpg,1578,5,0,2022-06-15_11h41.36.272,annotation,2021.2.3,Win32,32,,
,,,,,,,,,,,,,,,,,-0.243489583,0.165364583,1,0,0,image_1,0,43,43,62,1,4,A penguin holding a piece of paper with text on it. ,H,,1,open-images-2521_074d6af730ed17a6,Checks/check5/open-images-509_4d8bd994cb8c6eaeimg0.jpg,Checks/check5/open-images-2521_074d6af730ed17a6img1.jpg,Checks/check5/open-images-1365_a00a5fde334ae45aimg4.jpg,Checks/check5/open-images-1602_44092afdeab39e73img6.jpg,Checks/check5/open-images-1032_059f3cdfb85ee0ceimg3.jpg,Checks/check5/open-images-727_25b77fff36adba66img2.jpg,Checks/check5/open-images-2208_0fb92b9978d98575img2.jpg,Checks/check5/open-images-1305_05769e6abb16fdc8img9.jpg,Checks/check5/open-images-2676_052dbf7b4899430bimg1.jpg,Checks/check5/open-images-2569_1e81d79bb796a2dbimg7.jpg,,,1,2022-06-15_11h41.36.272,annotation,2021.2.3,Win32,32,,
,,,,,,,,,,,,,,,,,-0.470052083,0.169270833,1,0,0,image_0,0,44,44,37,1,1048,A bowl filled with vegetables in a bowl.,M,0,4,YouCook-video0037-shot3_0,Images/YouCook-video0037-shot3_0/img0.jpg,Images/YouCook-video0037-shot3_0/img133.jpg,Images/YouCook-video0037-shot3_0/img199.jpg,Images/YouCook-video0037-shot3_0/img223.jpg,Images/YouCook-video0037-shot3_0/img396.jpg,Images/YouCook-video0037-shot3_0/img515.jpg,Images/YouCook-video0037-shot3_0/img539.jpg,Images/YouCook-video0037-shot3_0/img557.jpg,Images/YouCook-video0037-shot3_0/img571.jpg,Images/YouCook-video0037-shot3_0/img575.jpg,864,5,0,2022-06-15_11h41.36.272,annotation,2021.2.3,Win32,32,,
,,,,,,,,,,,,,,,,,-0.493489583,0.158854167,1,0,0,image_0,0,45,45,0,1,1927,A woman with long hair brushes her face in a mirror.,M,0,9,MSR-VTT-videoTestVideo_video9782-shot1_1,Images/MSR-VTT-videoTestVideo_video9782-shot1_1/img208.jpg,Images/MSR-VTT-videoTestVideo_video9782-shot1_1/img268.jpg,Images/MSR-VTT-videoTestVideo_video9782-shot1_1/img304.jpg,Images/MSR-VTT-videoTestVideo_video9782-shot1_1/img345.jpg,Images/MSR-VTT-videoTestVideo_video9782-shot1_1/img350.jpg,Images/MSR-VTT-videoTestVideo_video9782-shot1_1/img351.jpg,Images/MSR-VTT-videoTestVideo_video9782-shot1_1/img356.jpg,Images/MSR-VTT-videoTestVideo_video9782-shot1_1/img363.jpg,Images/MSR-VTT-videoTestVideo_video9782-shot1_1/img494.jpg,Images/MSR-VTT-videoTestVideo_video9782-shot1_1/img499.jpg,1418,5,0,2022-06-15_11h41.36.272,annotation,2021.2.3,Win32,32,,
,,,,,,,,,,,,,,,,,0.2265625,0.158854167,1,0,0,image_3,0,46,46,39,1,2051,A woman standing next to a tent in the woods.,M,0,5,video-storytelling-videocamping_1OzbiB1TIWI-shot12_22,Images/video-storytelling-videocamping_1OzbiB1TIWI-shot12_22/img1054.jpg,Images/video-storytelling-videocamping_1OzbiB1TIWI-shot12_22/img1056.jpg,Images/video-storytelling-videocamping_1OzbiB1TIWI-shot12_22/img1057.jpg,Images/video-storytelling-videocamping_1OzbiB1TIWI-shot12_22/img1059.jpg,Images/video-storytelling-videocamping_1OzbiB1TIWI-shot12_22/img1064.jpg,Images/video-storytelling-videocamping_1OzbiB1TIWI-shot12_22/img1068.jpg,Images/video-storytelling-videocamping_1OzbiB1TIWI-shot12_22/img1073.jpg,Images/video-storytelling-videocamping_1OzbiB1TIWI-shot12_22/img1077.jpg,Images/video-storytelling-videocamping_1OzbiB1TIWI-shot12_22/img1085.jpg,Images/video-storytelling-videocamping_1OzbiB1TIWI-shot12_22/img1092.jpg,832,5,0,2022-06-15_11h41.36.272,annotation,2021.2.3,Win32,32,,
,,,,,,,,,,,,,,,,,-0.259114583,0.157552083,1,0,0,image_1,0,47,47,20,1,143,"No people are visible, and the blue ball is close to the edge of the right side of the image",H,0,0,MSR-VTT-videoTestVideo_video9169-shot2_0,Images/MSR-VTT-videoTestVideo_video9169-shot2_0/img0.jpg,Images/MSR-VTT-videoTestVideo_video9169-shot2_0/img4.jpg,Images/MSR-VTT-videoTestVideo_video9169-shot2_0/img8.jpg,Images/MSR-VTT-videoTestVideo_video9169-shot2_0/img12.jpg,Images/MSR-VTT-videoTestVideo_video9169-shot2_0/img14.jpg,Images/MSR-VTT-videoTestVideo_video9169-shot2_0/img17.jpg,Images/MSR-VTT-videoTestVideo_video9169-shot2_0/img18.jpg,Images/MSR-VTT-videoTestVideo_video9169-shot2_0/img20.jpg,Images/MSR-VTT-videoTestVideo_video9169-shot2_0/img21.jpg,Images/MSR-VTT-videoTestVideo_video9169-shot2_0/img24.jpg,1390,5,0,2022-06-15_11h41.36.272,annotation,2021.2.3,Win32,32,,
,,,,,,,,,,,,,,,,,0.247395833,-0.135416667,1,0,0,image_8,0,48,48,21,1,1463,A dog standing on top of a fire hydrant.,M,0,7,MSR-VTT-videoTestVideo_video8547-shot1_1,Images/MSR-VTT-videoTestVideo_video8547-shot1_1/img35.jpg,Images/MSR-VTT-videoTestVideo_video8547-shot1_1/img41.jpg,Images/MSR-VTT-videoTestVideo_video8547-shot1_1/img43.jpg,Images/MSR-VTT-videoTestVideo_video8547-shot1_1/img44.jpg,Images/MSR-VTT-videoTestVideo_video8547-shot1_1/img46.jpg,Images/MSR-VTT-videoTestVideo_video8547-shot1_1/img49.jpg,Images/MSR-VTT-videoTestVideo_video8547-shot1_1/img52.jpg,Images/MSR-VTT-videoTestVideo_video8547-shot1_1/img57.jpg,Images/MSR-VTT-videoTestVideo_video8547-shot1_1/img60.jpg,Images/MSR-VTT-videoTestVideo_video8547-shot1_1/img64.jpg,486,5,0,2022-06-15_11h41.36.272,annotation,2021.2.3,Win32,32,,
,,,,,,,,,,,,,,,,,-0.032552083,0.134114583,1,0,0,image_2,0,49,49,18,1,1001,The green part of the board is directly in the middle of the frame.,H,0,7,MSR-VTT-videoTestVideo_video7910-shot1_0,Images/MSR-VTT-videoTestVideo_video7910-shot1_0/img0.jpg,Images/MSR-VTT-videoTestVideo_video7910-shot1_0/img6.jpg,Images/MSR-VTT-videoTestVideo_video7910-shot1_0/img41.jpg,Images/MSR-VTT-videoTestVideo_video7910-shot1_0/img64.jpg,Images/MSR-VTT-videoTestVideo_video7910-shot1_0/img65.jpg,Images/MSR-VTT-videoTestVideo_video7910-shot1_0/img72.jpg,Images/MSR-VTT-videoTestVideo_video7910-shot1_0/img75.jpg,Images/MSR-VTT-videoTestVideo_video7910-shot1_0/img78.jpg,Images/MSR-VTT-videoTestVideo_video7910-shot1_0/img80.jpg,Images/MSR-VTT-videoTestVideo_video7910-shot1_0/img81.jpg,897,5,0,2022-06-15_11h41.36.272,annotation,2021.2.3,Win32,32,,
,,,,,,,,,,,,,,,,,0.239583333,-0.166666667,1,0,0,image_8,0,50,50,13,1,1202,A car that is parked next to a tree.,M,0,4,MSR-VTT-videoTestVideo_video7105-shot3_0,Images/MSR-VTT-videoTestVideo_video7105-shot3_0/img0.jpg,Images/MSR-VTT-videoTestVideo_video7105-shot3_0/img1.jpg,Images/MSR-VTT-videoTestVideo_video7105-shot3_0/img8.jpg,Images/MSR-VTT-videoTestVideo_video7105-shot3_0/img11.jpg,Images/MSR-VTT-videoTestVideo_video7105-shot3_0/img16.jpg,Images/MSR-VTT-videoTestVideo_video7105-shot3_0/img19.jpg,Images/MSR-VTT-videoTestVideo_video7105-shot3_0/img23.jpg,Images/MSR-VTT-videoTestVideo_video7105-shot3_0/img28.jpg,Images/MSR-VTT-videoTestVideo_video7105-shot3_0/img32.jpg,Images/MSR-VTT-videoTestVideo_video7105-shot3_0/img36.jpg,541,5,0,2022-06-15_11h41.36.272,annotation,2021.2.3,Win32,32,,
,,,,,,,,,,,,,,,,,0.536458333,-0.180989583,1,0,0,image_9,0,51,51,8,1,1719,A woman standing next to a man in a kitchen.,M,1,8,video-storytelling-videobirthday_fwpYnUDbusw-shot9_1,Images/video-storytelling-videobirthday_fwpYnUDbusw-shot9_1/img63.jpg,Images/video-storytelling-videobirthday_fwpYnUDbusw-shot9_1/img67.jpg,Images/video-storytelling-videobirthday_fwpYnUDbusw-shot9_1/img78.jpg,Images/video-storytelling-videobirthday_fwpYnUDbusw-shot9_1/img86.jpg,Images/video-storytelling-videobirthday_fwpYnUDbusw-shot9_1/img94.jpg,Images/video-storytelling-videobirthday_fwpYnUDbusw-shot9_1/img99.jpg,Images/video-storytelling-videobirthday_fwpYnUDbusw-shot9_1/img106.jpg,Images/video-storytelling-videobirthday_fwpYnUDbusw-shot9_1/img111.jpg,Images/video-storytelling-videobirthday_fwpYnUDbusw-shot9_1/img119.jpg,Images/video-storytelling-videobirthday_fwpYnUDbusw-shot9_1/img123.jpg,1169,5,0,2022-06-15_11h41.36.272,annotation,2021.2.3,Win32,32,,
,,,,,,,,,,,,,,,,,0.270833333,-0.12890625,1,0,0,image_8,0,52,52,23,1,894,A yield sign to the right of the road is just about to pass off frame,H,1,5,MSR-VTT-videoTestVideo_video9806-shot1_2,Images/MSR-VTT-videoTestVideo_video9806-shot1_2/img153.jpg,Images/MSR-VTT-videoTestVideo_video9806-shot1_2/img159.jpg,Images/MSR-VTT-videoTestVideo_video9806-shot1_2/img163.jpg,Images/MSR-VTT-videoTestVideo_video9806-shot1_2/img165.jpg,Images/MSR-VTT-videoTestVideo_video9806-shot1_2/img173.jpg,Images/MSR-VTT-videoTestVideo_video9806-shot1_2/img182.jpg,Images/MSR-VTT-videoTestVideo_video9806-shot1_2/img188.jpg,Images/MSR-VTT-videoTestVideo_video9806-shot1_2/img193.jpg,Images/MSR-VTT-videoTestVideo_video9806-shot1_2/img203.jpg,Images/MSR-VTT-videoTestVideo_video9806-shot1_2/img216.jpg,926,5,0,2022-06-15_11h41.36.272,annotation,2021.2.3,Win32,32,,
,,,,,,,,,,,,,,,,,-0.208333333,-0.115885417,1,0,0,image_6,0,53,53,9,1,1140,A child standing next to a Mickey Mouse themed hat.,M,0,7,video-storytelling-videobirthday__amwPjAcoC8-shot34_0,Images/video-storytelling-videobirthday__amwPjAcoC8-shot34_0/img0.jpg,Images/video-storytelling-videobirthday__amwPjAcoC8-shot34_0/img2.jpg,Images/video-storytelling-videobirthday__amwPjAcoC8-shot34_0/img4.jpg,Images/video-storytelling-videobirthday__amwPjAcoC8-shot34_0/img9.jpg,Images/video-storytelling-videobirthday__amwPjAcoC8-shot34_0/img12.jpg,Images/video-storytelling-videobirthday__amwPjAcoC8-shot34_0/img14.jpg,Images/video-storytelling-videobirthday__amwPjAcoC8-shot34_0/img19.jpg,Images/video-storytelling-videobirthday__amwPjAcoC8-shot34_0/img28.jpg,Images/video-storytelling-videobirthday__amwPjAcoC8-shot34_0/img36.jpg,Images/video-storytelling-videobirthday__amwPjAcoC8-shot34_0/img40.jpg,1355,5,0,2022-06-15_11h41.36.272,annotation,2021.2.3,Win32,32,,
,,,,,,,,,,,,,,,,,0.08203125,0.1484375,1,0,0,image_2,0,54,54,30,1,1367,A woman standing next to a truck on a dirt road.,M,0,8,MSR-VTT-videoTestVideo_video9737-shot4_0,Images/MSR-VTT-videoTestVideo_video9737-shot4_0/img0.jpg,Images/MSR-VTT-videoTestVideo_video9737-shot4_0/img2.jpg,Images/MSR-VTT-videoTestVideo_video9737-shot4_0/img6.jpg,Images/MSR-VTT-videoTestVideo_video9737-shot4_0/img8.jpg,Images/MSR-VTT-videoTestVideo_video9737-shot4_0/img11.jpg,Images/MSR-VTT-videoTestVideo_video9737-shot4_0/img13.jpg,Images/MSR-VTT-videoTestVideo_video9737-shot4_0/img15.jpg,Images/MSR-VTT-videoTestVideo_video9737-shot4_0/img19.jpg,Images/MSR-VTT-videoTestVideo_video9737-shot4_0/img21.jpg,Images/MSR-VTT-videoTestVideo_video9737-shot4_0/img24.jpg,256,5,0,2022-06-15_11h41.36.272,annotation,2021.2.3,Win32,32,,
,,,,,,,,,,,,,,,,,-0.0234375,-0.139322917,1,0,0,image_7,0,55,55,26,1,963,"A right forearm holding a food item, over a bowl on a grater",H,1,6,YouCook-video0063-shot17_1,Images/YouCook-video0063-shot17_1/img90.jpg,Images/YouCook-video0063-shot17_1/img97.jpg,Images/YouCook-video0063-shot17_1/img110.jpg,Images/YouCook-video0063-shot17_1/img112.jpg,Images/YouCook-video0063-shot17_1/img117.jpg,Images/YouCook-video0063-shot17_1/img125.jpg,Images/YouCook-video0063-shot17_1/img126.jpg,Images/YouCook-video0063-shot17_1/img132.jpg,Images/YouCook-video0063-shot17_1/img144.jpg,Images/YouCook-video0063-shot17_1/img146.jpg,679,5,0,2022-06-15_11h41.36.272,annotation,2021.2.3,Win32,32,,
,,,,,,,,,,,,,,,,,-0.239583333,0.154947917,1,0,0,image_1,0,56,56,31,1,560,The bride has her hand up high on the groom's neck up by his ear. The groom's left hand is a bit obscured so you can only really see his thumb. ,H,0,1,video-storytelling-videowedding_de8dLXvgV-I-shot139_0,Images/video-storytelling-videowedding_de8dLXvgV-I-shot139_0/img0.jpg,Images/video-storytelling-videowedding_de8dLXvgV-I-shot139_0/img19.jpg,Images/video-storytelling-videowedding_de8dLXvgV-I-shot139_0/img120.jpg,Images/video-storytelling-videowedding_de8dLXvgV-I-shot139_0/img144.jpg,Images/video-storytelling-videowedding_de8dLXvgV-I-shot139_0/img213.jpg,Images/video-storytelling-videowedding_de8dLXvgV-I-shot139_0/img226.jpg,Images/video-storytelling-videowedding_de8dLXvgV-I-shot139_0/img251.jpg,Images/video-storytelling-videowedding_de8dLXvgV-I-shot139_0/img272.jpg,Images/video-storytelling-videowedding_de8dLXvgV-I-shot139_0/img285.jpg,Images/video-storytelling-videowedding_de8dLXvgV-I-shot139_0/img300.jpg,747,5,0,2022-06-15_11h41.36.272,annotation,2021.2.3,Win32,32,,
,,,,,,,,,,,,,,,,,-0.506510417,0.158854167,1,0,0,image_0,0,57,57,40,1,1786,A man is taking a photo of himself in the water.,M,1,6,MSR-VTT-videoTestVideo_video7816-shot2_0,Images/MSR-VTT-videoTestVideo_video7816-shot2_0/img0.jpg,Images/MSR-VTT-videoTestVideo_video7816-shot2_0/img3.jpg,Images/MSR-VTT-videoTestVideo_video7816-shot2_0/img5.jpg,Images/MSR-VTT-videoTestVideo_video7816-shot2_0/img11.jpg,Images/MSR-VTT-videoTestVideo_video7816-shot2_0/img17.jpg,Images/MSR-VTT-videoTestVideo_video7816-shot2_0/img21.jpg,Images/MSR-VTT-videoTestVideo_video7816-shot2_0/img23.jpg,Images/MSR-VTT-videoTestVideo_video7816-shot2_0/img31.jpg,Images/MSR-VTT-videoTestVideo_video7816-shot2_0/img38.jpg,Images/MSR-VTT-videoTestVideo_video7816-shot2_0/img43.jpg,863,5,0,2022-06-15_11h41.36.272,annotation,2021.2.3,Win32,32,,
,,,,,,,,,,,,,,,,,0.453125,0.161458333,1,0,0,image_4,0,58,58,1,1,1120,A person holding a piece of cardboard in their hands.,M,0,5,MSR-VTT-videoTestVideo_video8290-shot1_0,Images/MSR-VTT-videoTestVideo_video8290-shot1_0/img0.jpg,Images/MSR-VTT-videoTestVideo_video8290-shot1_0/img1.jpg,Images/MSR-VTT-videoTestVideo_video8290-shot1_0/img6.jpg,Images/MSR-VTT-videoTestVideo_video8290-shot1_0/img8.jpg,Images/MSR-VTT-videoTestVideo_video8290-shot1_0/img10.jpg,Images/MSR-VTT-videoTestVideo_video8290-shot1_0/img11.jpg,Images/MSR-VTT-videoTestVideo_video8290-shot1_0/img13.jpg,Images/MSR-VTT-videoTestVideo_video8290-shot1_0/img15.jpg,Images/MSR-VTT-videoTestVideo_video8290-shot1_0/img27.jpg,Images/MSR-VTT-videoTestVideo_video8290-shot1_0/img33.jpg,939,5,0,2022-06-15_11h41.36.272,annotation,2021.2.3,Win32,32,,
,,,,,,,,,,,,,,,,,0.072916667,-0.125,1,0,0,image_7,0,59,59,36,1,1695,A man wearing a hat and sunglasses walks down the street.,M,0,8,MSR-VTT-videoTestVideo_video8195-shot0_1,Images/MSR-VTT-videoTestVideo_video8195-shot0_1/img44.jpg,Images/MSR-VTT-videoTestVideo_video8195-shot0_1/img50.jpg,Images/MSR-VTT-videoTestVideo_video8195-shot0_1/img57.jpg,Images/MSR-VTT-videoTestVideo_video8195-shot0_1/img60.jpg,Images/MSR-VTT-videoTestVideo_video8195-shot0_1/img79.jpg,Images/MSR-VTT-videoTestVideo_video8195-shot0_1/img82.jpg,Images/MSR-VTT-videoTestVideo_video8195-shot0_1/img84.jpg,Images/MSR-VTT-videoTestVideo_video8195-shot0_1/img86.jpg,Images/MSR-VTT-videoTestVideo_video8195-shot0_1/img91.jpg,Images/MSR-VTT-videoTestVideo_video8195-shot0_1/img100.jpg,1918,5,0,2022-06-15_11h41.36.272,annotation,2021.2.3,Win32,32,,
,,,,,,,,,,,,,,,,,0.287760417,-0.14453125,1,0,0,image_8,0,60,60,29,1,736,A woman's right hand is clasping greenbeans with no thumb showing and other hand gripping on left.,H,0,7,YouCook-video0016-shot3_1,Images/YouCook-video0016-shot3_1/img166.jpg,Images/YouCook-video0016-shot3_1/img183.jpg,Images/YouCook-video0016-shot3_1/img208.jpg,Images/YouCook-video0016-shot3_1/img215.jpg,Images/YouCook-video0016-shot3_1/img324.jpg,Images/YouCook-video0016-shot3_1/img327.jpg,Images/YouCook-video0016-shot3_1/img333.jpg,Images/YouCook-video0016-shot3_1/img349.jpg,Images/YouCook-video0016-shot3_1/img373.jpg,Images/YouCook-video0016-shot3_1/img388.jpg,186,5,0,2022-06-15_11h41.36.272,annotation,2021.2.3,Win32,32,,
,,,,,,,,,,,,,,,,,-0.236979167,-0.169270833,1,0,0,image_6,0,61,61,7,1,1740,A person walking down the street with a skateboard.,M,0,8,video-storytelling-videobirthday_fwpYnUDbusw-shot56_0,Images/video-storytelling-videobirthday_fwpYnUDbusw-shot56_0/img0.jpg,Images/video-storytelling-videobirthday_fwpYnUDbusw-shot56_0/img1.jpg,Images/video-storytelling-videobirthday_fwpYnUDbusw-shot56_0/img6.jpg,Images/video-storytelling-videobirthday_fwpYnUDbusw-shot56_0/img17.jpg,Images/video-storytelling-videobirthday_fwpYnUDbusw-shot56_0/img42.jpg,Images/video-storytelling-videobirthday_fwpYnUDbusw-shot56_0/img62.jpg,Images/video-storytelling-videobirthday_fwpYnUDbusw-shot56_0/img66.jpg,Images/video-storytelling-videobirthday_fwpYnUDbusw-shot56_0/img69.jpg,Images/video-storytelling-videobirthday_fwpYnUDbusw-shot56_0/img74.jpg,Images/video-storytelling-videobirthday_fwpYnUDbusw-shot56_0/img77.jpg,1461,5,0,2022-06-15_11h41.36.272,annotation,2021.2.3,Win32,32,,
,,,,,,,,,,,,,,,,,-0.236979167,0.127604167,1,0,0,image_1,0,62,62,34,1,1968,A man and a woman standing next to each other.,M,0,2,video-storytelling-videowedding_Bp8t824h5NE-shot69_0,Images/video-storytelling-videowedding_Bp8t824h5NE-shot69_0/img0.jpg,Images/video-storytelling-videowedding_Bp8t824h5NE-shot69_0/img13.jpg,Images/video-storytelling-videowedding_Bp8t824h5NE-shot69_0/img95.jpg,Images/video-storytelling-videowedding_Bp8t824h5NE-shot69_0/img130.jpg,Images/video-storytelling-videowedding_Bp8t824h5NE-shot69_0/img145.jpg,Images/video-storytelling-videowedding_Bp8t824h5NE-shot69_0/img152.jpg,Images/video-storytelling-videowedding_Bp8t824h5NE-shot69_0/img164.jpg,Images/video-storytelling-videowedding_Bp8t824h5NE-shot69_0/img195.jpg,Images/video-storytelling-videowedding_Bp8t824h5NE-shot69_0/img205.jpg,Images/video-storytelling-videowedding_Bp8t824h5NE-shot69_0/img226.jpg,2064,5,0,2022-06-15_11h41.36.272,annotation,2021.2.3,Win32,32,,
,,,,,,,,,,,,,,,,,,,,,,,,,,,,,,,,,,,,,,,,,,,,,,,2022-06-15_11h41.36.272,annotation,2021.2.3,Win32,32,space,64.031
