mturk,key_resp_2.keys,key_resp_2.rt,key_resp_3.keys,key_resp_3.rt,mouse_2.x,mouse_2.y,mouse_2.leftButton,mouse_2.midButton,mouse_2.rightButton,mouse_2.clicked_name,key_resp_5.keys,key_resp_5.rt,key_resp.keys,key_resp.rt,key_resp_6.keys,key_resp_6.rt,mouse.x,mouse.y,mouse.leftButton,mouse.midButton,mouse.rightButton,mouse.clicked_name,trials.thisRepN,trials.thisTrialN,trials.thisN,trials.thisIndex,trials.ran,N,caption,class_caption,model_guessed,target_idx,image_set,img1,img2,img3,img4,img5,img6,img7,img8,img9,img10,Q_id,block,is_check,date,expName,psychopyVersion,OS,frameRate,key_resp_7.keys,key_resp_7.rt
9600305,space,4.389,space,4.318,0.19140625,0.088541667,1,0,0,ex4,space,7.294,space,3.96,space,2.026,0.27734375,0.102864583,1,0,0,image_3,0,0,0,31,1,1840,A man pouring some food into a basket.,M,1,7,MSR-VTT-videoTestVideo_video7434-shot1_1,Images/MSR-VTT-videoTestVideo_video7434-shot1_1/img67.jpg,Images/MSR-VTT-videoTestVideo_video7434-shot1_1/img82.jpg,Images/MSR-VTT-videoTestVideo_video7434-shot1_1/img95.jpg,Images/MSR-VTT-videoTestVideo_video7434-shot1_1/img117.jpg,Images/MSR-VTT-videoTestVideo_video7434-shot1_1/img125.jpg,Images/MSR-VTT-videoTestVideo_video7434-shot1_1/img135.jpg,Images/MSR-VTT-videoTestVideo_video7434-shot1_1/img140.jpg,Images/MSR-VTT-videoTestVideo_video7434-shot1_1/img149.jpg,Images/MSR-VTT-videoTestVideo_video7434-shot1_1/img160.jpg,Images/MSR-VTT-videoTestVideo_video7434-shot1_1/img167.jpg,1907,22,0,2022-06-16_02h36.49.371,annotation,2021.2.3,Win32,60.0024001,,
,,,,,,,,,,,,,,,,,-0.251302083,0.12890625,1,0,0,image_1,0,1,1,41,1,2067,A close up of a person holding an umbrella.,M,0,5,MSR-VTT-videoTestVideo_video7925-shot1_2,Images/MSR-VTT-videoTestVideo_video7925-shot1_2/img272.jpg,Images/MSR-VTT-videoTestVideo_video7925-shot1_2/img273.jpg,Images/MSR-VTT-videoTestVideo_video7925-shot1_2/img275.jpg,Images/MSR-VTT-videoTestVideo_video7925-shot1_2/img276.jpg,Images/MSR-VTT-videoTestVideo_video7925-shot1_2/img277.jpg,Images/MSR-VTT-videoTestVideo_video7925-shot1_2/img278.jpg,Images/MSR-VTT-videoTestVideo_video7925-shot1_2/img280.jpg,Images/MSR-VTT-videoTestVideo_video7925-shot1_2/img285.jpg,Images/MSR-VTT-videoTestVideo_video7925-shot1_2/img290.jpg,Images/MSR-VTT-videoTestVideo_video7925-shot1_2/img294.jpg,605,22,0,2022-06-16_02h36.49.371,annotation,2021.2.3,Win32,60.0024001,,
,,,,,,,,,,,,,,,,,0.467447917,-0.180989583,1,0,0,image_9,0,2,2,7,1,1198,A child is cutting a piece of fruit on a turntable.,M,0,5,MSR-VTT-videoTestVideo_video9749-shot1_3,Images/MSR-VTT-videoTestVideo_video9749-shot1_3/img210.jpg,Images/MSR-VTT-videoTestVideo_video9749-shot1_3/img215.jpg,Images/MSR-VTT-videoTestVideo_video9749-shot1_3/img224.jpg,Images/MSR-VTT-videoTestVideo_video9749-shot1_3/img233.jpg,Images/MSR-VTT-videoTestVideo_video9749-shot1_3/img242.jpg,Images/MSR-VTT-videoTestVideo_video9749-shot1_3/img246.jpg,Images/MSR-VTT-videoTestVideo_video9749-shot1_3/img251.jpg,Images/MSR-VTT-videoTestVideo_video9749-shot1_3/img263.jpg,Images/MSR-VTT-videoTestVideo_video9749-shot1_3/img269.jpg,Images/MSR-VTT-videoTestVideo_video9749-shot1_3/img282.jpg,1365,22,0,2022-06-16_02h36.49.371,annotation,2021.2.3,Win32,60.0024001,,
,,,,,,,,,,,,,,,,,0.53515625,-0.100260417,1,0,0,image_9,0,3,3,29,1,595,"A man walks by, while a woman walks behind a pole.",H,0,9,video-storytelling-videowedding_de8dLXvgV-I-shot13_1,Images/video-storytelling-videowedding_de8dLXvgV-I-shot13_1/img30.jpg,Images/video-storytelling-videowedding_de8dLXvgV-I-shot13_1/img34.jpg,Images/video-storytelling-videowedding_de8dLXvgV-I-shot13_1/img40.jpg,Images/video-storytelling-videowedding_de8dLXvgV-I-shot13_1/img43.jpg,Images/video-storytelling-videowedding_de8dLXvgV-I-shot13_1/img48.jpg,Images/video-storytelling-videowedding_de8dLXvgV-I-shot13_1/img58.jpg,Images/video-storytelling-videowedding_de8dLXvgV-I-shot13_1/img62.jpg,Images/video-storytelling-videowedding_de8dLXvgV-I-shot13_1/img64.jpg,Images/video-storytelling-videowedding_de8dLXvgV-I-shot13_1/img65.jpg,Images/video-storytelling-videowedding_de8dLXvgV-I-shot13_1/img68.jpg,1147,22,0,2022-06-16_02h36.49.371,annotation,2021.2.3,Win32,60.0024001,,
,,,,,,,,,,,,,,,,,-0.481770833,-0.180989583,1,0,0,image_5,0,4,4,37,1,1784,A child playing with a toy bat in a pool.,M,0,3,video-storytelling-videobirthday__amwPjAcoC8-shot61_19,Images/video-storytelling-videobirthday__amwPjAcoC8-shot61_19/img421.jpg,Images/video-storytelling-videobirthday__amwPjAcoC8-shot61_19/img422.jpg,Images/video-storytelling-videobirthday__amwPjAcoC8-shot61_19/img423.jpg,Images/video-storytelling-videobirthday__amwPjAcoC8-shot61_19/img424.jpg,Images/video-storytelling-videobirthday__amwPjAcoC8-shot61_19/img426.jpg,Images/video-storytelling-videobirthday__amwPjAcoC8-shot61_19/img427.jpg,Images/video-storytelling-videobirthday__amwPjAcoC8-shot61_19/img429.jpg,Images/video-storytelling-videobirthday__amwPjAcoC8-shot61_19/img431.jpg,Images/video-storytelling-videobirthday__amwPjAcoC8-shot61_19/img433.jpg,Images/video-storytelling-videobirthday__amwPjAcoC8-shot61_19/img434.jpg,81,22,0,2022-06-16_02h36.49.371,annotation,2021.2.3,Win32,60.0024001,,
,,,,,,,,,,,,,,,,,-0.446614583,0.1328125,1,0,0,image_0,0,5,5,20,1,1213,A person holding a bag of food in their hands.,M,0,5,MSR-VTT-videoTestVideo_video9556-shot3_3,Images/MSR-VTT-videoTestVideo_video9556-shot3_3/img174.jpg,Images/MSR-VTT-videoTestVideo_video9556-shot3_3/img176.jpg,Images/MSR-VTT-videoTestVideo_video9556-shot3_3/img177.jpg,Images/MSR-VTT-videoTestVideo_video9556-shot3_3/img179.jpg,Images/MSR-VTT-videoTestVideo_video9556-shot3_3/img183.jpg,Images/MSR-VTT-videoTestVideo_video9556-shot3_3/img185.jpg,Images/MSR-VTT-videoTestVideo_video9556-shot3_3/img187.jpg,Images/MSR-VTT-videoTestVideo_video9556-shot3_3/img188.jpg,Images/MSR-VTT-videoTestVideo_video9556-shot3_3/img190.jpg,Images/MSR-VTT-videoTestVideo_video9556-shot3_3/img191.jpg,1404,22,0,2022-06-16_02h36.49.371,annotation,2021.2.3,Win32,60.0024001,,
,,,,,,,,,,,,,,,,,0.485677083,0.079427083,1,0,0,image_4,0,6,6,36,1,1914,A couple of people jumping on top of a couple of chairs.,M,0,8,MSR-VTT-videoTestVideo_video7113-shot1_1,Images/MSR-VTT-videoTestVideo_video7113-shot1_1/img58.jpg,Images/MSR-VTT-videoTestVideo_video7113-shot1_1/img72.jpg,Images/MSR-VTT-videoTestVideo_video7113-shot1_1/img76.jpg,Images/MSR-VTT-videoTestVideo_video7113-shot1_1/img81.jpg,Images/MSR-VTT-videoTestVideo_video7113-shot1_1/img89.jpg,Images/MSR-VTT-videoTestVideo_video7113-shot1_1/img93.jpg,Images/MSR-VTT-videoTestVideo_video7113-shot1_1/img96.jpg,Images/MSR-VTT-videoTestVideo_video7113-shot1_1/img102.jpg,Images/MSR-VTT-videoTestVideo_video7113-shot1_1/img116.jpg,Images/MSR-VTT-videoTestVideo_video7113-shot1_1/img128.jpg,1188,22,0,2022-06-16_02h36.49.371,annotation,2021.2.3,Win32,60.0024001,,
,,,,,,,,,,,,,,,,,0.5390625,-0.111979167,1,0,0,image_9,0,7,7,60,1,2,Green type writer with a red tape. ,H,,9,open-images-531_0dd4eb59d465a8be,Checks/check3/open-images-503_1ccd6fa641154ebbimg7.jpg,Checks/check3/open-images-1852_00faf52058ad28b8img4.jpg,Checks/check3/open-images-386_1b2e28d6d994603eimg1.jpg,Checks/check3/open-images-471_1121e9f97c200ac0img8.jpg,Checks/check3/open-images-1886_3db71eaddb618934img8.jpg,Checks/check3/open-images-1696_20a4ebf0c0f76b05img6.jpg,Checks/check3/open-images-2447_128483a48e1552f4img6.jpg,Checks/check3/open-images-2994_9965cbf8aa20bda0img2.jpg,Checks/check3/open-images-1068_03d63613107970b3img6.jpg,Checks/check3/open-images-531_0dd4eb59d465a8beimg9.jpg,,,1,2022-06-16_02h36.49.371,annotation,2021.2.3,Win32,60.0024001,,
,,,,,,,,,,,,,,,,,0.002604167,0.11328125,1,0,0,image_2,0,8,8,0,1,233,The knife is just starting to touch the middle pepper but no slice has been made yet.,H,0,2,YouCook-video0034-shot16_3,Images/YouCook-video0034-shot16_3/img368.jpg,Images/YouCook-video0034-shot16_3/img371.jpg,Images/YouCook-video0034-shot16_3/img378.jpg,Images/YouCook-video0034-shot16_3/img404.jpg,Images/YouCook-video0034-shot16_3/img424.jpg,Images/YouCook-video0034-shot16_3/img443.jpg,Images/YouCook-video0034-shot16_3/img446.jpg,Images/YouCook-video0034-shot16_3/img450.jpg,Images/YouCook-video0034-shot16_3/img454.jpg,Images/YouCook-video0034-shot16_3/img456.jpg,1243,22,0,2022-06-16_02h36.49.371,annotation,2021.2.3,Win32,60.0024001,,
,,,,,,,,,,,,,,,,,0.024739583,-0.122395833,1,0,0,image_7,0,9,9,8,1,388,Darkest shadow over the guy's face in the middle. The side brown doors are closest together. ,H,1,9,MSR-VTT-videoTestVideo_video7541-shot1_8,Images/MSR-VTT-videoTestVideo_video7541-shot1_8/img550.jpg,Images/MSR-VTT-videoTestVideo_video7541-shot1_8/img559.jpg,Images/MSR-VTT-videoTestVideo_video7541-shot1_8/img563.jpg,Images/MSR-VTT-videoTestVideo_video7541-shot1_8/img565.jpg,Images/MSR-VTT-videoTestVideo_video7541-shot1_8/img570.jpg,Images/MSR-VTT-videoTestVideo_video7541-shot1_8/img574.jpg,Images/MSR-VTT-videoTestVideo_video7541-shot1_8/img578.jpg,Images/MSR-VTT-videoTestVideo_video7541-shot1_8/img584.jpg,Images/MSR-VTT-videoTestVideo_video7541-shot1_8/img591.jpg,Images/MSR-VTT-videoTestVideo_video7541-shot1_8/img596.jpg,1658,22,0,2022-06-16_02h36.49.371,annotation,2021.2.3,Win32,60.0024001,,
,,,,,,,,,,,,,,,,,-0.45703125,0.1640625,1,0,0,image_0,0,10,10,57,1,1970,A picture of a plate of food on a plate.,M,0,3,MSR-VTT-videoTestVideo_video9640-shot1_1,Images/MSR-VTT-videoTestVideo_video9640-shot1_1/img80.jpg,Images/MSR-VTT-videoTestVideo_video9640-shot1_1/img85.jpg,Images/MSR-VTT-videoTestVideo_video9640-shot1_1/img90.jpg,Images/MSR-VTT-videoTestVideo_video9640-shot1_1/img91.jpg,Images/MSR-VTT-videoTestVideo_video9640-shot1_1/img163.jpg,Images/MSR-VTT-videoTestVideo_video9640-shot1_1/img169.jpg,Images/MSR-VTT-videoTestVideo_video9640-shot1_1/img174.jpg,Images/MSR-VTT-videoTestVideo_video9640-shot1_1/img175.jpg,Images/MSR-VTT-videoTestVideo_video9640-shot1_1/img176.jpg,Images/MSR-VTT-videoTestVideo_video9640-shot1_1/img181.jpg,956,22,0,2022-06-16_02h36.49.371,annotation,2021.2.3,Win32,60.0024001,,
,,,,,,,,,,,,,,,,,0.4921875,-0.186197917,1,0,0,image_9,0,11,11,27,1,1526,A woman sitting on a bench next to a bag.,M,0,3,video-storytelling-videocamping_1OzbiB1TIWI-shot11_9,Images/video-storytelling-videocamping_1OzbiB1TIWI-shot11_9/img419.jpg,Images/video-storytelling-videocamping_1OzbiB1TIWI-shot11_9/img421.jpg,Images/video-storytelling-videocamping_1OzbiB1TIWI-shot11_9/img423.jpg,Images/video-storytelling-videocamping_1OzbiB1TIWI-shot11_9/img425.jpg,Images/video-storytelling-videocamping_1OzbiB1TIWI-shot11_9/img426.jpg,Images/video-storytelling-videocamping_1OzbiB1TIWI-shot11_9/img430.jpg,Images/video-storytelling-videocamping_1OzbiB1TIWI-shot11_9/img435.jpg,Images/video-storytelling-videocamping_1OzbiB1TIWI-shot11_9/img443.jpg,Images/video-storytelling-videocamping_1OzbiB1TIWI-shot11_9/img447.jpg,Images/video-storytelling-videocamping_1OzbiB1TIWI-shot11_9/img454.jpg,2018,22,0,2022-06-16_02h36.49.371,annotation,2021.2.3,Win32,60.0024001,,
,,,,,,,,,,,,,,,,,0.259114583,0.134114583,1,0,0,image_3,0,12,12,30,1,1059,A view of a bridge over a bridge.,M,0,6,video-storytelling-videocamping_dBXYM3dQTSo-shot8_1,Images/video-storytelling-videocamping_dBXYM3dQTSo-shot8_1/img53.jpg,Images/video-storytelling-videocamping_dBXYM3dQTSo-shot8_1/img57.jpg,Images/video-storytelling-videocamping_dBXYM3dQTSo-shot8_1/img58.jpg,Images/video-storytelling-videocamping_dBXYM3dQTSo-shot8_1/img67.jpg,Images/video-storytelling-videocamping_dBXYM3dQTSo-shot8_1/img69.jpg,Images/video-storytelling-videocamping_dBXYM3dQTSo-shot8_1/img71.jpg,Images/video-storytelling-videocamping_dBXYM3dQTSo-shot8_1/img73.jpg,Images/video-storytelling-videocamping_dBXYM3dQTSo-shot8_1/img75.jpg,Images/video-storytelling-videocamping_dBXYM3dQTSo-shot8_1/img78.jpg,Images/video-storytelling-videocamping_dBXYM3dQTSo-shot8_1/img80.jpg,1200,22,0,2022-06-16_02h36.49.371,annotation,2021.2.3,Win32,60.0024001,,
,,,,,,,,,,,,,,,,,-0.48046875,-0.12890625,1,0,0,image_5,0,13,13,38,1,520,A picture of a man with a dark blue background.  He is looking off slightly to the right side of the picture with his eyes mostly closed. ,H,0,4,MSR-VTT-videoTestVideo_video9319-shot1_2,Images/MSR-VTT-videoTestVideo_video9319-shot1_2/img163.jpg,Images/MSR-VTT-videoTestVideo_video9319-shot1_2/img170.jpg,Images/MSR-VTT-videoTestVideo_video9319-shot1_2/img186.jpg,Images/MSR-VTT-videoTestVideo_video9319-shot1_2/img201.jpg,Images/MSR-VTT-videoTestVideo_video9319-shot1_2/img211.jpg,Images/MSR-VTT-videoTestVideo_video9319-shot1_2/img220.jpg,Images/MSR-VTT-videoTestVideo_video9319-shot1_2/img229.jpg,Images/MSR-VTT-videoTestVideo_video9319-shot1_2/img236.jpg,Images/MSR-VTT-videoTestVideo_video9319-shot1_2/img272.jpg,Images/MSR-VTT-videoTestVideo_video9319-shot1_2/img276.jpg,919,22,0,2022-06-16_02h36.49.371,annotation,2021.2.3,Win32,60.0024001,,
,,,,,,,,,,,,,,,,,-0.014322917,0.123697917,1,0,0,image_2,0,14,14,58,1,0,Pair of black gloves,H,,2,open-images-510_3a241cb30d6e5319,Checks/check1/open-images-225_1442c0d0ef23d58bimg3.jpg,Checks/check1/open-images-2759_3a42708fe77398b7img8.jpg,Checks/check1/open-images-510_3a241cb30d6e5319img2.jpg,Checks/check1/open-images-2209_02c98146fb93ff17img1.jpg,Checks/check1/open-images-1553_0f128317e56a9d2fimg9.jpg,Checks/check1/open-images-2666_044d7c6d11e6b493img8.jpg,Checks/check1/open-images-2880_159294646083f545img4.jpg,Checks/check1/open-images-609_2dc0baa993a2bd25img5.jpg,Checks/check1/open-images-1854_2b15616b4f1080e7img2.jpg,Checks/check1/open-images-1435_1b0ce31951048765img8.jpg,,,1,2022-06-16_02h36.49.371,annotation,2021.2.3,Win32,60.0024001,,
,,,,,,,,,,,,,,,,,0.174479167,0.092447917,1,0,0,image_3,0,15,15,50,1,52,"The empty silver bowl is centered, and just a tiny edge of the bowl below it can be seen.",H,1,8,MSR-VTT-videoTestVideo_video8062-shot1_2,Images/MSR-VTT-videoTestVideo_video8062-shot1_2/img372.jpg,Images/MSR-VTT-videoTestVideo_video8062-shot1_2/img375.jpg,Images/MSR-VTT-videoTestVideo_video8062-shot1_2/img387.jpg,Images/MSR-VTT-videoTestVideo_video8062-shot1_2/img394.jpg,Images/MSR-VTT-videoTestVideo_video8062-shot1_2/img401.jpg,Images/MSR-VTT-videoTestVideo_video8062-shot1_2/img455.jpg,Images/MSR-VTT-videoTestVideo_video8062-shot1_2/img471.jpg,Images/MSR-VTT-videoTestVideo_video8062-shot1_2/img473.jpg,Images/MSR-VTT-videoTestVideo_video8062-shot1_2/img476.jpg,Images/MSR-VTT-videoTestVideo_video8062-shot1_2/img492.jpg,2079,22,0,2022-06-16_02h36.49.371,annotation,2021.2.3,Win32,60.0024001,,
,,,,,,,,,,,,,,,,,-0.506510417,-0.192708333,1,0,0,image_5,0,16,16,34,1,355,You can see the very side of the red dog's eye on the right side of the image. No blue in the eye can be seen. ,H,0,8,video-storytelling-videobirthday__amwPjAcoC8-shot80_4,Images/video-storytelling-videobirthday__amwPjAcoC8-shot80_4/img196.jpg,Images/video-storytelling-videobirthday__amwPjAcoC8-shot80_4/img223.jpg,Images/video-storytelling-videobirthday__amwPjAcoC8-shot80_4/img233.jpg,Images/video-storytelling-videobirthday__amwPjAcoC8-shot80_4/img241.jpg,Images/video-storytelling-videobirthday__amwPjAcoC8-shot80_4/img250.jpg,Images/video-storytelling-videobirthday__amwPjAcoC8-shot80_4/img257.jpg,Images/video-storytelling-videobirthday__amwPjAcoC8-shot80_4/img260.jpg,Images/video-storytelling-videobirthday__amwPjAcoC8-shot80_4/img272.jpg,Images/video-storytelling-videobirthday__amwPjAcoC8-shot80_4/img274.jpg,Images/video-storytelling-videobirthday__amwPjAcoC8-shot80_4/img276.jpg,1919,22,0,2022-06-16_02h36.49.371,annotation,2021.2.3,Win32,60.0024001,,
,,,,,,,,,,,,,,,,,0.516927083,-0.169270833,1,0,0,image_9,0,17,17,9,1,1416,A woman standing in front of a bowl with a knife.,M,0,9,YouCook-video0010-shot1_3,Images/YouCook-video0010-shot1_3/img376.jpg,Images/YouCook-video0010-shot1_3/img379.jpg,Images/YouCook-video0010-shot1_3/img384.jpg,Images/YouCook-video0010-shot1_3/img390.jpg,Images/YouCook-video0010-shot1_3/img398.jpg,Images/YouCook-video0010-shot1_3/img407.jpg,Images/YouCook-video0010-shot1_3/img409.jpg,Images/YouCook-video0010-shot1_3/img411.jpg,Images/YouCook-video0010-shot1_3/img418.jpg,Images/YouCook-video0010-shot1_3/img423.jpg,1303,22,0,2022-06-16_02h36.49.371,annotation,2021.2.3,Win32,60.0024001,,
,,,,,,,,,,,,,,,,,-0.467447917,0.12109375,1,0,0,image_0,0,18,18,22,1,1680,A close up of a toy car on a snow covered floor.,M,0,2,MSR-VTT-videoTestVideo_video8108-shot1_2,Images/MSR-VTT-videoTestVideo_video8108-shot1_2/img164.jpg,Images/MSR-VTT-videoTestVideo_video8108-shot1_2/img183.jpg,Images/MSR-VTT-videoTestVideo_video8108-shot1_2/img200.jpg,Images/MSR-VTT-videoTestVideo_video8108-shot1_2/img213.jpg,Images/MSR-VTT-videoTestVideo_video8108-shot1_2/img238.jpg,Images/MSR-VTT-videoTestVideo_video8108-shot1_2/img243.jpg,Images/MSR-VTT-videoTestVideo_video8108-shot1_2/img250.jpg,Images/MSR-VTT-videoTestVideo_video8108-shot1_2/img253.jpg,Images/MSR-VTT-videoTestVideo_video8108-shot1_2/img265.jpg,Images/MSR-VTT-videoTestVideo_video8108-shot1_2/img276.jpg,1532,22,0,2022-06-16_02h36.49.371,annotation,2021.2.3,Win32,60.0024001,,
,,,,,,,,,,,,,,,,,0.479166667,0.09375,1,0,0,image_4,0,19,19,49,1,1258,A person standing next to a bunch of bags.,M,1,2,MSR-VTT-videoTestVideo_video9489-shot2_2,Images/MSR-VTT-videoTestVideo_video9489-shot2_2/img61.jpg,Images/MSR-VTT-videoTestVideo_video9489-shot2_2/img62.jpg,Images/MSR-VTT-videoTestVideo_video9489-shot2_2/img64.jpg,Images/MSR-VTT-videoTestVideo_video9489-shot2_2/img65.jpg,Images/MSR-VTT-videoTestVideo_video9489-shot2_2/img68.jpg,Images/MSR-VTT-videoTestVideo_video9489-shot2_2/img70.jpg,Images/MSR-VTT-videoTestVideo_video9489-shot2_2/img72.jpg,Images/MSR-VTT-videoTestVideo_video9489-shot2_2/img75.jpg,Images/MSR-VTT-videoTestVideo_video9489-shot2_2/img76.jpg,Images/MSR-VTT-videoTestVideo_video9489-shot2_2/img77.jpg,772,22,0,2022-06-16_02h36.49.371,annotation,2021.2.3,Win32,60.0024001,,
,,,,,,,,,,,,,,,,,-0.06640625,0.196614583,1,0,0,image_2,0,20,20,44,1,1166,A woman walking down a street carrying a dog.,M,0,1,video-storytelling-videocamping_1OzbiB1TIWI-shot5_2,Images/video-storytelling-videocamping_1OzbiB1TIWI-shot5_2/img138.jpg,Images/video-storytelling-videocamping_1OzbiB1TIWI-shot5_2/img142.jpg,Images/video-storytelling-videocamping_1OzbiB1TIWI-shot5_2/img143.jpg,Images/video-storytelling-videocamping_1OzbiB1TIWI-shot5_2/img151.jpg,Images/video-storytelling-videocamping_1OzbiB1TIWI-shot5_2/img155.jpg,Images/video-storytelling-videocamping_1OzbiB1TIWI-shot5_2/img160.jpg,Images/video-storytelling-videocamping_1OzbiB1TIWI-shot5_2/img170.jpg,Images/video-storytelling-videocamping_1OzbiB1TIWI-shot5_2/img173.jpg,Images/video-storytelling-videocamping_1OzbiB1TIWI-shot5_2/img177.jpg,Images/video-storytelling-videocamping_1OzbiB1TIWI-shot5_2/img179.jpg,21,22,0,2022-06-16_02h36.49.371,annotation,2021.2.3,Win32,60.0024001,,
,,,,,,,,,,,,,,,,,0.23046875,-0.147135417,1,0,0,image_8,0,21,21,15,1,293,The back of the woman is shown.  The bracelet on her right hand is by her hip. Her left arm is away from her body.,H,0,8,MSR-VTT-videoTestVideo_video8286-shot2_0,Images/MSR-VTT-videoTestVideo_video8286-shot2_0/img0.jpg,Images/MSR-VTT-videoTestVideo_video8286-shot2_0/img24.jpg,Images/MSR-VTT-videoTestVideo_video8286-shot2_0/img29.jpg,Images/MSR-VTT-videoTestVideo_video8286-shot2_0/img35.jpg,Images/MSR-VTT-videoTestVideo_video8286-shot2_0/img40.jpg,Images/MSR-VTT-videoTestVideo_video8286-shot2_0/img52.jpg,Images/MSR-VTT-videoTestVideo_video8286-shot2_0/img88.jpg,Images/MSR-VTT-videoTestVideo_video8286-shot2_0/img108.jpg,Images/MSR-VTT-videoTestVideo_video8286-shot2_0/img124.jpg,Images/MSR-VTT-videoTestVideo_video8286-shot2_0/img147.jpg,714,22,0,2022-06-16_02h36.49.371,annotation,2021.2.3,Win32,60.0024001,,
,,,,,,,,,,,,,,,,,-0.477864583,-0.118489583,1,0,0,image_5,0,22,22,16,1,923,"she is laying almost flat on the ground, her leg is bent upwards at a 90 degree angle",H,0,5,MSR-VTT-videoTestVideo_video7057-shot1_11,Images/MSR-VTT-videoTestVideo_video7057-shot1_11/img273.jpg,Images/MSR-VTT-videoTestVideo_video7057-shot1_11/img276.jpg,Images/MSR-VTT-videoTestVideo_video7057-shot1_11/img279.jpg,Images/MSR-VTT-videoTestVideo_video7057-shot1_11/img281.jpg,Images/MSR-VTT-videoTestVideo_video7057-shot1_11/img285.jpg,Images/MSR-VTT-videoTestVideo_video7057-shot1_11/img290.jpg,Images/MSR-VTT-videoTestVideo_video7057-shot1_11/img294.jpg,Images/MSR-VTT-videoTestVideo_video7057-shot1_11/img295.jpg,Images/MSR-VTT-videoTestVideo_video7057-shot1_11/img298.jpg,Images/MSR-VTT-videoTestVideo_video7057-shot1_11/img299.jpg,191,22,0,2022-06-16_02h36.49.371,annotation,2021.2.3,Win32,60.0024001,,
,,,,,,,,,,,,,,,,,0.036458333,0.14453125,1,0,0,image_2,0,23,23,26,1,350,She is holding a small glass jar with one hand. She is looking down with mouth open. Her other hand is reaching for a utensil. ,H,0,3,YouCook-video0083-shot12_0,Images/YouCook-video0083-shot12_0/img0.jpg,Images/YouCook-video0083-shot12_0/img14.jpg,Images/YouCook-video0083-shot12_0/img21.jpg,Images/YouCook-video0083-shot12_0/img83.jpg,Images/YouCook-video0083-shot12_0/img188.jpg,Images/YouCook-video0083-shot12_0/img259.jpg,Images/YouCook-video0083-shot12_0/img293.jpg,Images/YouCook-video0083-shot12_0/img295.jpg,Images/YouCook-video0083-shot12_0/img298.jpg,Images/YouCook-video0083-shot12_0/img303.jpg,847,22,0,2022-06-16_02h36.49.371,annotation,2021.2.3,Win32,60.0024001,,
,,,,,,,,,,,,,,,,,-0.03515625,-0.154947917,1,0,0,image_7,0,24,24,3,1,1866,A woman wearing a hat and a hat on a bus.,M,0,1,MSR-VTT-videoTestVideo_video8954-shot1_6,Images/MSR-VTT-videoTestVideo_video8954-shot1_6/img464.jpg,Images/MSR-VTT-videoTestVideo_video8954-shot1_6/img467.jpg,Images/MSR-VTT-videoTestVideo_video8954-shot1_6/img469.jpg,Images/MSR-VTT-videoTestVideo_video8954-shot1_6/img471.jpg,Images/MSR-VTT-videoTestVideo_video8954-shot1_6/img475.jpg,Images/MSR-VTT-videoTestVideo_video8954-shot1_6/img480.jpg,Images/MSR-VTT-videoTestVideo_video8954-shot1_6/img490.jpg,Images/MSR-VTT-videoTestVideo_video8954-shot1_6/img495.jpg,Images/MSR-VTT-videoTestVideo_video8954-shot1_6/img497.jpg,Images/MSR-VTT-videoTestVideo_video8954-shot1_6/img501.jpg,287,22,0,2022-06-16_02h36.49.371,annotation,2021.2.3,Win32,60.0024001,,
,,,,,,,,,,,,,,,,,0.48828125,-0.138020833,1,0,0,image_9,0,25,25,42,1,765,"There is one finger visible on each side of the paper. Only the very top of the green design at the bottom of the paper is showing, none of the white at the bottom is showing.",H,0,8,MSR-VTT-videoTestVideo_video7075-shot1_3,Images/MSR-VTT-videoTestVideo_video7075-shot1_3/img135.jpg,Images/MSR-VTT-videoTestVideo_video7075-shot1_3/img140.jpg,Images/MSR-VTT-videoTestVideo_video7075-shot1_3/img141.jpg,Images/MSR-VTT-videoTestVideo_video7075-shot1_3/img143.jpg,Images/MSR-VTT-videoTestVideo_video7075-shot1_3/img144.jpg,Images/MSR-VTT-videoTestVideo_video7075-shot1_3/img153.jpg,Images/MSR-VTT-videoTestVideo_video7075-shot1_3/img172.jpg,Images/MSR-VTT-videoTestVideo_video7075-shot1_3/img175.jpg,Images/MSR-VTT-videoTestVideo_video7075-shot1_3/img191.jpg,Images/MSR-VTT-videoTestVideo_video7075-shot1_3/img213.jpg,834,22,0,2022-06-16_02h36.49.371,annotation,2021.2.3,Win32,60.0024001,,
,,,,,,,,,,,,,,,,,0.067708333,-0.102864583,1,0,0,image_7,0,26,26,45,1,1906,A row of bananas on top of each other.,M,0,3,MSR-VTT-videoTestVideo_video8040-shot1_1,Images/MSR-VTT-videoTestVideo_video8040-shot1_1/img130.jpg,Images/MSR-VTT-videoTestVideo_video8040-shot1_1/img136.jpg,Images/MSR-VTT-videoTestVideo_video8040-shot1_1/img145.jpg,Images/MSR-VTT-videoTestVideo_video8040-shot1_1/img152.jpg,Images/MSR-VTT-videoTestVideo_video8040-shot1_1/img165.jpg,Images/MSR-VTT-videoTestVideo_video8040-shot1_1/img177.jpg,Images/MSR-VTT-videoTestVideo_video8040-shot1_1/img182.jpg,Images/MSR-VTT-videoTestVideo_video8040-shot1_1/img186.jpg,Images/MSR-VTT-videoTestVideo_video8040-shot1_1/img190.jpg,Images/MSR-VTT-videoTestVideo_video8040-shot1_1/img192.jpg,756,22,0,2022-06-16_02h36.49.371,annotation,2021.2.3,Win32,60.0024001,,
,,,,,,,,,,,,,,,,,-0.53125,0.104166667,1,0,0,image_0,0,27,27,56,1,1060,A woman standing next to a TV in front of a television.,M,0,7,MSR-VTT-videoTestVideo_video9219-shot1_3,Images/MSR-VTT-videoTestVideo_video9219-shot1_3/img256.jpg,Images/MSR-VTT-videoTestVideo_video9219-shot1_3/img260.jpg,Images/MSR-VTT-videoTestVideo_video9219-shot1_3/img262.jpg,Images/MSR-VTT-videoTestVideo_video9219-shot1_3/img268.jpg,Images/MSR-VTT-videoTestVideo_video9219-shot1_3/img272.jpg,Images/MSR-VTT-videoTestVideo_video9219-shot1_3/img286.jpg,Images/MSR-VTT-videoTestVideo_video9219-shot1_3/img291.jpg,Images/MSR-VTT-videoTestVideo_video9219-shot1_3/img302.jpg,Images/MSR-VTT-videoTestVideo_video9219-shot1_3/img315.jpg,Images/MSR-VTT-videoTestVideo_video9219-shot1_3/img328.jpg,120,22,0,2022-06-16_02h36.49.371,annotation,2021.2.3,Win32,60.0024001,,
,,,,,,,,,,,,,,,,,-0.005208333,0.12890625,1,0,0,image_2,0,28,28,2,1,941,"The person is in the process of pouring the oil, and there is text at the bottom. You can see their thumb and other fingers wrapped around the jar.",H,0,2,YouCook-video0061-shot10_0,Images/YouCook-video0061-shot10_0/img0.jpg,Images/YouCook-video0061-shot10_0/img26.jpg,Images/YouCook-video0061-shot10_0/img28.jpg,Images/YouCook-video0061-shot10_0/img247.jpg,Images/YouCook-video0061-shot10_0/img274.jpg,Images/YouCook-video0061-shot10_0/img283.jpg,Images/YouCook-video0061-shot10_0/img291.jpg,Images/YouCook-video0061-shot10_0/img324.jpg,Images/YouCook-video0061-shot10_0/img347.jpg,Images/YouCook-video0061-shot10_0/img394.jpg,271,22,0,2022-06-16_02h36.49.371,annotation,2021.2.3,Win32,60.0024001,,
,,,,,,,,,,,,,,,,,-0.518229167,0.108072917,1,0,0,image_0,0,29,29,52,1,1047,A bowl filled with a variety of vegetables in a bowl.,M,1,3,YouCook-video0037-shot3_0,Images/YouCook-video0037-shot3_0/img0.jpg,Images/YouCook-video0037-shot3_0/img133.jpg,Images/YouCook-video0037-shot3_0/img199.jpg,Images/YouCook-video0037-shot3_0/img223.jpg,Images/YouCook-video0037-shot3_0/img396.jpg,Images/YouCook-video0037-shot3_0/img515.jpg,Images/YouCook-video0037-shot3_0/img539.jpg,Images/YouCook-video0037-shot3_0/img557.jpg,Images/YouCook-video0037-shot3_0/img571.jpg,Images/YouCook-video0037-shot3_0/img575.jpg,1095,22,0,2022-06-16_02h36.49.371,annotation,2021.2.3,Win32,60.0024001,,
,,,,,,,,,,,,,,,,,0.026041667,0.0859375,1,0,0,image_2,0,30,30,12,1,581,The pink circle with white text in the lower left corner is just starting to block the left hand that is flat on the table. ,H,0,2,MSR-VTT-videoTestVideo_video9279-shot1_1,Images/MSR-VTT-videoTestVideo_video9279-shot1_1/img47.jpg,Images/MSR-VTT-videoTestVideo_video9279-shot1_1/img49.jpg,Images/MSR-VTT-videoTestVideo_video9279-shot1_1/img54.jpg,Images/MSR-VTT-videoTestVideo_video9279-shot1_1/img63.jpg,Images/MSR-VTT-videoTestVideo_video9279-shot1_1/img72.jpg,Images/MSR-VTT-videoTestVideo_video9279-shot1_1/img146.jpg,Images/MSR-VTT-videoTestVideo_video9279-shot1_1/img154.jpg,Images/MSR-VTT-videoTestVideo_video9279-shot1_1/img155.jpg,Images/MSR-VTT-videoTestVideo_video9279-shot1_1/img157.jpg,Images/MSR-VTT-videoTestVideo_video9279-shot1_1/img159.jpg,188,22,0,2022-06-16_02h36.49.371,annotation,2021.2.3,Win32,60.0024001,,
,,,,,,,,,,,,,,,,,-0.489583333,0.135416667,1,0,0,image_0,0,31,31,13,1,516,A women looks down while only her right hand can be seen.,H,0,4,MSR-VTT-videoTestVideo_video9419-shot2_1,Images/MSR-VTT-videoTestVideo_video9419-shot2_1/img102.jpg,Images/MSR-VTT-videoTestVideo_video9419-shot2_1/img114.jpg,Images/MSR-VTT-videoTestVideo_video9419-shot2_1/img126.jpg,Images/MSR-VTT-videoTestVideo_video9419-shot2_1/img187.jpg,Images/MSR-VTT-videoTestVideo_video9419-shot2_1/img202.jpg,Images/MSR-VTT-videoTestVideo_video9419-shot2_1/img203.jpg,Images/MSR-VTT-videoTestVideo_video9419-shot2_1/img215.jpg,Images/MSR-VTT-videoTestVideo_video9419-shot2_1/img226.jpg,Images/MSR-VTT-videoTestVideo_video9419-shot2_1/img232.jpg,Images/MSR-VTT-videoTestVideo_video9419-shot2_1/img234.jpg,1643,22,0,2022-06-16_02h36.49.371,annotation,2021.2.3,Win32,60.0024001,,
,,,,,,,,,,,,,,,,,-0.510416667,-0.119791667,1,0,0,image_5,0,32,32,59,1,1,The only picture of a hawk.  It is looking to the left.  You see lots of branches and darker blue sky. ,H,,5,open-images-958_686caac9c5b322e7,Checks/check2/open-images-2603_1b5152f01f0093e7img3.jpg,Checks/check2/open-images-1836_069810916ce5d675img8.jpg,Checks/check2/open-images-974_0748fdedc4bf8b7bimg2.jpg,Checks/check2/open-images-617_01fb725fb1aa7b04img6.jpg,Checks/check2/open-images-507_047769e1f977cd97img2.jpg,Checks/check2/open-images-958_686caac9c5b322e7img5.jpg,Checks/check2/open-images-1278_21851d9bf5dc05c9img7.jpg,Checks/check2/open-images-2424_05f04546e01499f2img0.jpg,Checks/check2/open-images-1529_1442b11a10a6aeadimg3.jpg,Checks/check2/open-images-514_2c523ddedc2561d4img1.jpg,,,1,2022-06-16_02h36.49.371,annotation,2021.2.3,Win32,60.0024001,,
,,,,,,,,,,,,,,,,,-0.4296875,-0.122395833,1,0,0,image_5,0,33,33,6,1,1180,A picture of a person playing a game of Frisbee.,M,0,5,MSR-VTT-videoTestVideo_video9903-shot1_3,Images/MSR-VTT-videoTestVideo_video9903-shot1_3/img94.jpg,Images/MSR-VTT-videoTestVideo_video9903-shot1_3/img99.jpg,Images/MSR-VTT-videoTestVideo_video9903-shot1_3/img103.jpg,Images/MSR-VTT-videoTestVideo_video9903-shot1_3/img106.jpg,Images/MSR-VTT-videoTestVideo_video9903-shot1_3/img109.jpg,Images/MSR-VTT-videoTestVideo_video9903-shot1_3/img116.jpg,Images/MSR-VTT-videoTestVideo_video9903-shot1_3/img118.jpg,Images/MSR-VTT-videoTestVideo_video9903-shot1_3/img139.jpg,Images/MSR-VTT-videoTestVideo_video9903-shot1_3/img141.jpg,Images/MSR-VTT-videoTestVideo_video9903-shot1_3/img144.jpg,1686,22,0,2022-06-16_02h36.49.371,annotation,2021.2.3,Win32,60.0024001,,
,,,,,,,,,,,,,,,,,0.216145833,0.16015625,1,0,0,image_3,0,34,34,24,1,802,"Only the person's hand is seen on the left side, no part of the arm.",H,0,2,MSR-VTT-videoTestVideo_video9508-shot2_0,Images/MSR-VTT-videoTestVideo_video9508-shot2_0/img0.jpg,Images/MSR-VTT-videoTestVideo_video9508-shot2_0/img1.jpg,Images/MSR-VTT-videoTestVideo_video9508-shot2_0/img6.jpg,Images/MSR-VTT-videoTestVideo_video9508-shot2_0/img10.jpg,Images/MSR-VTT-videoTestVideo_video9508-shot2_0/img16.jpg,Images/MSR-VTT-videoTestVideo_video9508-shot2_0/img18.jpg,Images/MSR-VTT-videoTestVideo_video9508-shot2_0/img21.jpg,Images/MSR-VTT-videoTestVideo_video9508-shot2_0/img23.jpg,Images/MSR-VTT-videoTestVideo_video9508-shot2_0/img24.jpg,Images/MSR-VTT-videoTestVideo_video9508-shot2_0/img29.jpg,502,22,0,2022-06-16_02h36.49.371,annotation,2021.2.3,Win32,60.0024001,,
,,,,,,,,,,,,,,,,,-0.572916667,-0.16796875,1,0,0,image_5,0,35,35,54,1,1141,A loaf of bread sitting on top of a pan.,M,0,5,YouCook-video0027-shot5_0,Images/YouCook-video0027-shot5_0/img2.jpg,Images/YouCook-video0027-shot5_0/img8.jpg,Images/YouCook-video0027-shot5_0/img19.jpg,Images/YouCook-video0027-shot5_0/img23.jpg,Images/YouCook-video0027-shot5_0/img46.jpg,Images/YouCook-video0027-shot5_0/img57.jpg,Images/YouCook-video0027-shot5_0/img107.jpg,Images/YouCook-video0027-shot5_0/img115.jpg,Images/YouCook-video0027-shot5_0/img127.jpg,Images/YouCook-video0027-shot5_0/img130.jpg,799,22,0,2022-06-16_02h36.49.371,annotation,2021.2.3,Win32,60.0024001,,
,,,,,,,,,,,,,,,,,-0.546875,0.147135417,1,0,0,image_0,0,36,36,35,1,1257,a close up of a woman in a suit and tie.,M,0,4,MSR-VTT-videoTestVideo_video7533-shot1_4,Images/MSR-VTT-videoTestVideo_video7533-shot1_4/img398.jpg,Images/MSR-VTT-videoTestVideo_video7533-shot1_4/img402.jpg,Images/MSR-VTT-videoTestVideo_video7533-shot1_4/img406.jpg,Images/MSR-VTT-videoTestVideo_video7533-shot1_4/img413.jpg,Images/MSR-VTT-videoTestVideo_video7533-shot1_4/img417.jpg,Images/MSR-VTT-videoTestVideo_video7533-shot1_4/img423.jpg,Images/MSR-VTT-videoTestVideo_video7533-shot1_4/img425.jpg,Images/MSR-VTT-videoTestVideo_video7533-shot1_4/img429.jpg,Images/MSR-VTT-videoTestVideo_video7533-shot1_4/img449.jpg,Images/MSR-VTT-videoTestVideo_video7533-shot1_4/img456.jpg,530,22,0,2022-06-16_02h36.49.371,annotation,2021.2.3,Win32,60.0024001,,
,,,,,,,,,,,,,,,,,-0.251302083,0.091145833,1,0,0,image_1,0,37,37,28,1,62,8 people are visible on a snowy mountainside in a mostly clear photo,H,1,1,MSR-VTT-videoTestVideo_video7564-shot1_0,Images/MSR-VTT-videoTestVideo_video7564-shot1_0/img0.jpg,Images/MSR-VTT-videoTestVideo_video7564-shot1_0/img7.jpg,Images/MSR-VTT-videoTestVideo_video7564-shot1_0/img10.jpg,Images/MSR-VTT-videoTestVideo_video7564-shot1_0/img15.jpg,Images/MSR-VTT-videoTestVideo_video7564-shot1_0/img17.jpg,Images/MSR-VTT-videoTestVideo_video7564-shot1_0/img20.jpg,Images/MSR-VTT-videoTestVideo_video7564-shot1_0/img25.jpg,Images/MSR-VTT-videoTestVideo_video7564-shot1_0/img27.jpg,Images/MSR-VTT-videoTestVideo_video7564-shot1_0/img36.jpg,Images/MSR-VTT-videoTestVideo_video7564-shot1_0/img42.jpg,1030,22,0,2022-06-16_02h36.49.371,annotation,2021.2.3,Win32,60.0024001,,
,,,,,,,,,,,,,,,,,-0.26171875,-0.184895833,1,0,0,image_6,0,38,38,1,1,781,A dark overall shot that is mostly grey in color.  There is a gun that is pointed to an opening in a wall in the distance.  There is a blueish light on the far right side of the image. ,H,0,5,MSR-VTT-videoTestVideo_video8356-shot1_8,Images/MSR-VTT-videoTestVideo_video8356-shot1_8/img602.jpg,Images/MSR-VTT-videoTestVideo_video8356-shot1_8/img624.jpg,Images/MSR-VTT-videoTestVideo_video8356-shot1_8/img627.jpg,Images/MSR-VTT-videoTestVideo_video8356-shot1_8/img657.jpg,Images/MSR-VTT-videoTestVideo_video8356-shot1_8/img675.jpg,Images/MSR-VTT-videoTestVideo_video8356-shot1_8/img700.jpg,Images/MSR-VTT-videoTestVideo_video8356-shot1_8/img715.jpg,Images/MSR-VTT-videoTestVideo_video8356-shot1_8/img751.jpg,Images/MSR-VTT-videoTestVideo_video8356-shot1_8/img764.jpg,Images/MSR-VTT-videoTestVideo_video8356-shot1_8/img799.jpg,707,22,0,2022-06-16_02h36.49.371,annotation,2021.2.3,Win32,60.0024001,,
,,,,,,,,,,,,,,,,,-0.50390625,0.18359375,1,0,0,image_0,0,39,39,51,1,759,"The woman's lips are puckered and a strand of hair is coming out, positioned as though it's coming out of her mouth. Her eyes are visible and her left eye is just under the top of the photo edge.",H,0,8,MSR-VTT-videoTestVideo_video7265-shot1_2,Images/MSR-VTT-videoTestVideo_video7265-shot1_2/img153.jpg,Images/MSR-VTT-videoTestVideo_video7265-shot1_2/img157.jpg,Images/MSR-VTT-videoTestVideo_video7265-shot1_2/img159.jpg,Images/MSR-VTT-videoTestVideo_video7265-shot1_2/img166.jpg,Images/MSR-VTT-videoTestVideo_video7265-shot1_2/img171.jpg,Images/MSR-VTT-videoTestVideo_video7265-shot1_2/img184.jpg,Images/MSR-VTT-videoTestVideo_video7265-shot1_2/img192.jpg,Images/MSR-VTT-videoTestVideo_video7265-shot1_2/img198.jpg,Images/MSR-VTT-videoTestVideo_video7265-shot1_2/img202.jpg,Images/MSR-VTT-videoTestVideo_video7265-shot1_2/img209.jpg,1772,22,0,2022-06-16_02h36.49.371,annotation,2021.2.3,Win32,60.0024001,,
,,,,,,,,,,,,,,,,,0.419270833,0.083333333,1,0,0,image_4,0,40,40,39,1,532,"The boy's forearm is in the frame, but none of his body.",H,0,4,video-storytelling-videobirthday__amwPjAcoC8-shot63_2,Images/video-storytelling-videobirthday__amwPjAcoC8-shot63_2/img58.jpg,Images/video-storytelling-videobirthday__amwPjAcoC8-shot63_2/img60.jpg,Images/video-storytelling-videobirthday__amwPjAcoC8-shot63_2/img62.jpg,Images/video-storytelling-videobirthday__amwPjAcoC8-shot63_2/img64.jpg,Images/video-storytelling-videobirthday__amwPjAcoC8-shot63_2/img72.jpg,Images/video-storytelling-videobirthday__amwPjAcoC8-shot63_2/img76.jpg,Images/video-storytelling-videobirthday__amwPjAcoC8-shot63_2/img80.jpg,Images/video-storytelling-videobirthday__amwPjAcoC8-shot63_2/img83.jpg,Images/video-storytelling-videobirthday__amwPjAcoC8-shot63_2/img87.jpg,Images/video-storytelling-videobirthday__amwPjAcoC8-shot63_2/img91.jpg,1182,22,0,2022-06-16_02h36.49.371,annotation,2021.2.3,Win32,60.0024001,,
,,,,,,,,,,,,,,,,,0.260416667,0.119791667,1,0,0,image_3,0,41,41,55,1,1606,A group of people standing around a display of colorful objects.,M,0,1,MSR-VTT-videoTestVideo_video8588-shot0_1,Images/MSR-VTT-videoTestVideo_video8588-shot0_1/img77.jpg,Images/MSR-VTT-videoTestVideo_video8588-shot0_1/img93.jpg,Images/MSR-VTT-videoTestVideo_video8588-shot0_1/img107.jpg,Images/MSR-VTT-videoTestVideo_video8588-shot0_1/img128.jpg,Images/MSR-VTT-videoTestVideo_video8588-shot0_1/img150.jpg,Images/MSR-VTT-videoTestVideo_video8588-shot0_1/img159.jpg,Images/MSR-VTT-videoTestVideo_video8588-shot0_1/img164.jpg,Images/MSR-VTT-videoTestVideo_video8588-shot0_1/img169.jpg,Images/MSR-VTT-videoTestVideo_video8588-shot0_1/img179.jpg,Images/MSR-VTT-videoTestVideo_video8588-shot0_1/img189.jpg,1072,22,0,2022-06-16_02h36.49.371,annotation,2021.2.3,Win32,60.0024001,,
,,,,,,,,,,,,,,,,,0.494791667,-0.1015625,1,0,0,image_9,0,42,42,23,1,2032,A blurry image of a person standing next to a computer.,M,0,6,MSR-VTT-videoTestVideo_video8203-shot1_3,Images/MSR-VTT-videoTestVideo_video8203-shot1_3/img189.jpg,Images/MSR-VTT-videoTestVideo_video8203-shot1_3/img206.jpg,Images/MSR-VTT-videoTestVideo_video8203-shot1_3/img213.jpg,Images/MSR-VTT-videoTestVideo_video8203-shot1_3/img218.jpg,Images/MSR-VTT-videoTestVideo_video8203-shot1_3/img221.jpg,Images/MSR-VTT-videoTestVideo_video8203-shot1_3/img227.jpg,Images/MSR-VTT-videoTestVideo_video8203-shot1_3/img235.jpg,Images/MSR-VTT-videoTestVideo_video8203-shot1_3/img239.jpg,Images/MSR-VTT-videoTestVideo_video8203-shot1_3/img248.jpg,Images/MSR-VTT-videoTestVideo_video8203-shot1_3/img267.jpg,1191,22,0,2022-06-16_02h36.49.371,annotation,2021.2.3,Win32,60.0024001,,
,,,,,,,,,,,,,,,,,0.532552083,-0.212239583,1,0,0,image_9,0,43,43,17,1,1878,A plate of food on top of a plate.,M,0,9,MSR-VTT-videoTestVideo_video7406-shot1_2,Images/MSR-VTT-videoTestVideo_video7406-shot1_2/img441.jpg,Images/MSR-VTT-videoTestVideo_video7406-shot1_2/img447.jpg,Images/MSR-VTT-videoTestVideo_video7406-shot1_2/img453.jpg,Images/MSR-VTT-videoTestVideo_video7406-shot1_2/img457.jpg,Images/MSR-VTT-videoTestVideo_video7406-shot1_2/img487.jpg,Images/MSR-VTT-videoTestVideo_video7406-shot1_2/img582.jpg,Images/MSR-VTT-videoTestVideo_video7406-shot1_2/img585.jpg,Images/MSR-VTT-videoTestVideo_video7406-shot1_2/img591.jpg,Images/MSR-VTT-videoTestVideo_video7406-shot1_2/img593.jpg,Images/MSR-VTT-videoTestVideo_video7406-shot1_2/img662.jpg,1281,22,0,2022-06-16_02h36.49.371,annotation,2021.2.3,Win32,60.0024001,,
,,,,,,,,,,,,,,,,,-0.501302083,0.125,1,0,0,image_0,0,44,44,4,1,74,a brighter shot of a city scape with no people present in the image,H,0,0,MSR-VTT-videoTestVideo_video7803-shot2_0,Images/MSR-VTT-videoTestVideo_video7803-shot2_0/img0.jpg,Images/MSR-VTT-videoTestVideo_video7803-shot2_0/img3.jpg,Images/MSR-VTT-videoTestVideo_video7803-shot2_0/img7.jpg,Images/MSR-VTT-videoTestVideo_video7803-shot2_0/img11.jpg,Images/MSR-VTT-videoTestVideo_video7803-shot2_0/img29.jpg,Images/MSR-VTT-videoTestVideo_video7803-shot2_0/img46.jpg,Images/MSR-VTT-videoTestVideo_video7803-shot2_0/img48.jpg,Images/MSR-VTT-videoTestVideo_video7803-shot2_0/img50.jpg,Images/MSR-VTT-videoTestVideo_video7803-shot2_0/img69.jpg,Images/MSR-VTT-videoTestVideo_video7803-shot2_0/img72.jpg,1340,22,0,2022-06-16_02h36.49.371,annotation,2021.2.3,Win32,60.0024001,,
,,,,,,,,,,,,,,,,,0.227864583,0.186197917,1,0,0,image_3,0,45,45,10,1,1891,A group of people playing a game of rugby.,M,1,6,MSR-VTT-videoTestVideo_video9823-shot3_1,Images/MSR-VTT-videoTestVideo_video9823-shot3_1/img17.jpg,Images/MSR-VTT-videoTestVideo_video9823-shot3_1/img18.jpg,Images/MSR-VTT-videoTestVideo_video9823-shot3_1/img19.jpg,Images/MSR-VTT-videoTestVideo_video9823-shot3_1/img20.jpg,Images/MSR-VTT-videoTestVideo_video9823-shot3_1/img21.jpg,Images/MSR-VTT-videoTestVideo_video9823-shot3_1/img24.jpg,Images/MSR-VTT-videoTestVideo_video9823-shot3_1/img27.jpg,Images/MSR-VTT-videoTestVideo_video9823-shot3_1/img28.jpg,Images/MSR-VTT-videoTestVideo_video9823-shot3_1/img30.jpg,Images/MSR-VTT-videoTestVideo_video9823-shot3_1/img31.jpg,219,22,0,2022-06-16_02h36.49.371,annotation,2021.2.3,Win32,60.0024001,,
,,,,,,,,,,,,,,,,,0.303385417,-0.17578125,1,0,0,image_8,0,46,46,5,1,1527,A child standing next to a fire hydrant.,M,1,5,MSR-VTT-videoTestVideo_video9036-shot2_2,Images/MSR-VTT-videoTestVideo_video9036-shot2_2/img103.jpg,Images/MSR-VTT-videoTestVideo_video9036-shot2_2/img106.jpg,Images/MSR-VTT-videoTestVideo_video9036-shot2_2/img114.jpg,Images/MSR-VTT-videoTestVideo_video9036-shot2_2/img117.jpg,Images/MSR-VTT-videoTestVideo_video9036-shot2_2/img121.jpg,Images/MSR-VTT-videoTestVideo_video9036-shot2_2/img122.jpg,Images/MSR-VTT-videoTestVideo_video9036-shot2_2/img123.jpg,Images/MSR-VTT-videoTestVideo_video9036-shot2_2/img125.jpg,Images/MSR-VTT-videoTestVideo_video9036-shot2_2/img127.jpg,Images/MSR-VTT-videoTestVideo_video9036-shot2_2/img129.jpg,1475,22,0,2022-06-16_02h36.49.371,annotation,2021.2.3,Win32,60.0024001,,
,,,,,,,,,,,,,,,,,0.234375,0.174479167,1,0,0,image_3,0,47,47,40,1,299,"The woman looks like she has both hands on the plate, and her rings on her right hand are facing forward the most. There is only a small space between the top edge of the foil and the plate.",H,0,2,YouCook-video0016-shot3_0,Images/YouCook-video0016-shot3_0/img0.jpg,Images/YouCook-video0016-shot3_0/img16.jpg,Images/YouCook-video0016-shot3_0/img21.jpg,Images/YouCook-video0016-shot3_0/img38.jpg,Images/YouCook-video0016-shot3_0/img45.jpg,Images/YouCook-video0016-shot3_0/img95.jpg,Images/YouCook-video0016-shot3_0/img107.jpg,Images/YouCook-video0016-shot3_0/img115.jpg,Images/YouCook-video0016-shot3_0/img125.jpg,Images/YouCook-video0016-shot3_0/img165.jpg,658,22,0,2022-06-16_02h36.49.371,annotation,2021.2.3,Win32,60.0024001,,
,,,,,,,,,,,,,,,,,-0.016927083,-0.108072917,1,0,0,image_7,0,48,48,53,1,644,"The woman in camoflage's head is tilted back. You can see her closed eyes and headband,  and it looks like she has a cracker in her mouth. The two girls behind her are positioned so it looks like one of the girls is kissing the top of the other girl's head.",H,0,0,video-storytelling-videocamping_1OzbiB1TIWI-shot14_9,Images/video-storytelling-videocamping_1OzbiB1TIWI-shot14_9/img1112.jpg,Images/video-storytelling-videocamping_1OzbiB1TIWI-shot14_9/img1119.jpg,Images/video-storytelling-videocamping_1OzbiB1TIWI-shot14_9/img1127.jpg,Images/video-storytelling-videocamping_1OzbiB1TIWI-shot14_9/img1139.jpg,Images/video-storytelling-videocamping_1OzbiB1TIWI-shot14_9/img1143.jpg,Images/video-storytelling-videocamping_1OzbiB1TIWI-shot14_9/img1149.jpg,Images/video-storytelling-videocamping_1OzbiB1TIWI-shot14_9/img1153.jpg,Images/video-storytelling-videocamping_1OzbiB1TIWI-shot14_9/img1156.jpg,Images/video-storytelling-videocamping_1OzbiB1TIWI-shot14_9/img1161.jpg,Images/video-storytelling-videocamping_1OzbiB1TIWI-shot14_9/img1166.jpg,1820,22,0,2022-06-16_02h36.49.371,annotation,2021.2.3,Win32,60.0024001,,
,,,,,,,,,,,,,,,,,-0.236979167,0.15625,1,0,0,image_1,0,49,49,62,1,4,A penguin holding a piece of paper with text on it. ,H,,1,open-images-2521_074d6af730ed17a6,Checks/check5/open-images-509_4d8bd994cb8c6eaeimg0.jpg,Checks/check5/open-images-2521_074d6af730ed17a6img1.jpg,Checks/check5/open-images-1365_a00a5fde334ae45aimg4.jpg,Checks/check5/open-images-1602_44092afdeab39e73img6.jpg,Checks/check5/open-images-1032_059f3cdfb85ee0ceimg3.jpg,Checks/check5/open-images-727_25b77fff36adba66img2.jpg,Checks/check5/open-images-2208_0fb92b9978d98575img2.jpg,Checks/check5/open-images-1305_05769e6abb16fdc8img9.jpg,Checks/check5/open-images-2676_052dbf7b4899430bimg1.jpg,Checks/check5/open-images-2569_1e81d79bb796a2dbimg7.jpg,,,1,2022-06-16_02h36.49.371,annotation,2021.2.3,Win32,60.0024001,,
,,,,,,,,,,,,,,,,,-0.01953125,0.1328125,1,0,0,image_2,0,50,50,14,1,1511,A woman sitting next to a computer on a desk.,M,0,3,MSR-VTT-videoTestVideo_video9109-shot1_0,Images/MSR-VTT-videoTestVideo_video9109-shot1_0/img7.jpg,Images/MSR-VTT-videoTestVideo_video9109-shot1_0/img25.jpg,Images/MSR-VTT-videoTestVideo_video9109-shot1_0/img31.jpg,Images/MSR-VTT-videoTestVideo_video9109-shot1_0/img40.jpg,Images/MSR-VTT-videoTestVideo_video9109-shot1_0/img46.jpg,Images/MSR-VTT-videoTestVideo_video9109-shot1_0/img59.jpg,Images/MSR-VTT-videoTestVideo_video9109-shot1_0/img63.jpg,Images/MSR-VTT-videoTestVideo_video9109-shot1_0/img67.jpg,Images/MSR-VTT-videoTestVideo_video9109-shot1_0/img83.jpg,Images/MSR-VTT-videoTestVideo_video9109-shot1_0/img98.jpg,1723,22,0,2022-06-16_02h36.49.371,annotation,2021.2.3,Win32,60.0024001,,
,,,,,,,,,,,,,,,,,0.005208333,0.125,1,0,0,image_2,0,51,51,61,1,3,A grey elephant with golden leaves on it. ,H,,2,open-images-1745_0ed62fe71809b2f5,Checks/check4/open-images-2609_3f72daeb23764ecfimg6.jpg,Checks/check4/open-images-1928_60679e2899870e08img1.jpg,Checks/check4/open-images-1745_0ed62fe71809b2f5img2.jpg,Checks/check4/open-images-1811_9ae6351c7f7565edimg0.jpg,Checks/check4/open-images-1721_6f04da11945ea492img3.jpg,Checks/check4/open-images-1907_5f9be3e4ea5e22c7img2.jpg,Checks/check4/open-images-580_0ddffb9c25141999img1.jpg,Checks/check4/open-images-2924_0645dcbcf998fed9img3.jpg,Checks/check4/open-images-869_856ecbcb5faf76e3img8.jpg,Checks/check4/open-images-250_02039517e63a91fbimg1.jpg,,,1,2022-06-16_02h36.49.371,annotation,2021.2.3,Win32,60.0024001,,
,,,,,,,,,,,,,,,,,0.263020833,0.122395833,1,0,0,image_3,0,52,52,48,1,336,It looks like the goat has a pointed orange shoulder on the right.,H,0,8,MSR-VTT-videoTestVideo_video9415-shot1_9,Images/MSR-VTT-videoTestVideo_video9415-shot1_9/img286.jpg,Images/MSR-VTT-videoTestVideo_video9415-shot1_9/img293.jpg,Images/MSR-VTT-videoTestVideo_video9415-shot1_9/img294.jpg,Images/MSR-VTT-videoTestVideo_video9415-shot1_9/img298.jpg,Images/MSR-VTT-videoTestVideo_video9415-shot1_9/img306.jpg,Images/MSR-VTT-videoTestVideo_video9415-shot1_9/img310.jpg,Images/MSR-VTT-videoTestVideo_video9415-shot1_9/img315.jpg,Images/MSR-VTT-videoTestVideo_video9415-shot1_9/img321.jpg,Images/MSR-VTT-videoTestVideo_video9415-shot1_9/img328.jpg,Images/MSR-VTT-videoTestVideo_video9415-shot1_9/img333.jpg,3,22,0,2022-06-16_02h36.49.371,annotation,2021.2.3,Win32,60.0024001,,
,,,,,,,,,,,,,,,,,-0.553385417,-0.161458333,1,0,0,image_5,0,53,53,43,1,788,The white sign in the basket  on the right is still visible with quite a bit of room on the top of the image and the top of the sign.  The basket on the left is still barely visible but the white sign in it is not visible. ,H,0,5,MSR-VTT-videoTestVideo_video9053-shot1_8,Images/MSR-VTT-videoTestVideo_video9053-shot1_8/img370.jpg,Images/MSR-VTT-videoTestVideo_video9053-shot1_8/img371.jpg,Images/MSR-VTT-videoTestVideo_video9053-shot1_8/img376.jpg,Images/MSR-VTT-videoTestVideo_video9053-shot1_8/img379.jpg,Images/MSR-VTT-videoTestVideo_video9053-shot1_8/img381.jpg,Images/MSR-VTT-videoTestVideo_video9053-shot1_8/img383.jpg,Images/MSR-VTT-videoTestVideo_video9053-shot1_8/img386.jpg,Images/MSR-VTT-videoTestVideo_video9053-shot1_8/img388.jpg,Images/MSR-VTT-videoTestVideo_video9053-shot1_8/img391.jpg,Images/MSR-VTT-videoTestVideo_video9053-shot1_8/img394.jpg,1034,22,0,2022-06-16_02h36.49.371,annotation,2021.2.3,Win32,60.0024001,,
,,,,,,,,,,,,,,,,,-0.470052083,0.126302083,1,0,0,image_0,0,54,54,47,1,163,The engine part being held by the person is fully visible. There is only a sliver of skin seen to the right of the person's left gloved hand.,H,0,3,MSR-VTT-videoTestVideo_video7820-shot1_1,Images/MSR-VTT-videoTestVideo_video7820-shot1_1/img29.jpg,Images/MSR-VTT-videoTestVideo_video7820-shot1_1/img33.jpg,Images/MSR-VTT-videoTestVideo_video7820-shot1_1/img40.jpg,Images/MSR-VTT-videoTestVideo_video7820-shot1_1/img45.jpg,Images/MSR-VTT-videoTestVideo_video7820-shot1_1/img48.jpg,Images/MSR-VTT-videoTestVideo_video7820-shot1_1/img55.jpg,Images/MSR-VTT-videoTestVideo_video7820-shot1_1/img92.jpg,Images/MSR-VTT-videoTestVideo_video7820-shot1_1/img104.jpg,Images/MSR-VTT-videoTestVideo_video7820-shot1_1/img116.jpg,Images/MSR-VTT-videoTestVideo_video7820-shot1_1/img129.jpg,769,22,0,2022-06-16_02h36.49.371,annotation,2021.2.3,Win32,60.0024001,,
,,,,,,,,,,,,,,,,,-0.239583333,0.158854167,1,0,0,image_1,0,55,55,21,1,1098,A person holding a bowl of food in front of a bowl of vegetables.,M,0,4,MSR-VTT-videoTestVideo_video7254-shot1_6,Images/MSR-VTT-videoTestVideo_video7254-shot1_6/img186.jpg,Images/MSR-VTT-videoTestVideo_video7254-shot1_6/img189.jpg,Images/MSR-VTT-videoTestVideo_video7254-shot1_6/img191.jpg,Images/MSR-VTT-videoTestVideo_video7254-shot1_6/img193.jpg,Images/MSR-VTT-videoTestVideo_video7254-shot1_6/img196.jpg,Images/MSR-VTT-videoTestVideo_video7254-shot1_6/img203.jpg,Images/MSR-VTT-videoTestVideo_video7254-shot1_6/img204.jpg,Images/MSR-VTT-videoTestVideo_video7254-shot1_6/img205.jpg,Images/MSR-VTT-videoTestVideo_video7254-shot1_6/img207.jpg,Images/MSR-VTT-videoTestVideo_video7254-shot1_6/img208.jpg,1648,22,0,2022-06-16_02h36.49.371,annotation,2021.2.3,Win32,60.0024001,,
,,,,,,,,,,,,,,,,,-0.509114583,0.161458333,1,0,0,image_0,0,56,56,46,1,12,"The cucumber is just to be cut into, you can see a transparent image covering the image ",H,0,1,YouCook-video0034-shot14_4,Images/YouCook-video0034-shot14_4/img355.jpg,Images/YouCook-video0034-shot14_4/img361.jpg,Images/YouCook-video0034-shot14_4/img368.jpg,Images/YouCook-video0034-shot14_4/img399.jpg,Images/YouCook-video0034-shot14_4/img403.jpg,Images/YouCook-video0034-shot14_4/img411.jpg,Images/YouCook-video0034-shot14_4/img427.jpg,Images/YouCook-video0034-shot14_4/img432.jpg,Images/YouCook-video0034-shot14_4/img436.jpg,Images/YouCook-video0034-shot14_4/img440.jpg,1099,22,0,2022-06-16_02h36.49.371,annotation,2021.2.3,Win32,60.0024001,,
,,,,,,,,,,,,,,,,,-0.514322917,-0.143229167,1,0,0,image_5,0,57,57,18,1,1250,A blurry image of a person standing on top of a stage.,M,0,7,MSR-VTT-videoTestVideo_video8027-shot1_0,Images/MSR-VTT-videoTestVideo_video8027-shot1_0/img0.jpg,Images/MSR-VTT-videoTestVideo_video8027-shot1_0/img4.jpg,Images/MSR-VTT-videoTestVideo_video8027-shot1_0/img7.jpg,Images/MSR-VTT-videoTestVideo_video8027-shot1_0/img8.jpg,Images/MSR-VTT-videoTestVideo_video8027-shot1_0/img13.jpg,Images/MSR-VTT-videoTestVideo_video8027-shot1_0/img34.jpg,Images/MSR-VTT-videoTestVideo_video8027-shot1_0/img52.jpg,Images/MSR-VTT-videoTestVideo_video8027-shot1_0/img57.jpg,Images/MSR-VTT-videoTestVideo_video8027-shot1_0/img65.jpg,Images/MSR-VTT-videoTestVideo_video8027-shot1_0/img73.jpg,1734,22,0,2022-06-16_02h36.49.371,annotation,2021.2.3,Win32,60.0024001,,
,,,,,,,,,,,,,,,,,-0.541666667,0.161458333,1,0,0,image_0,0,58,58,19,1,1542,A person holding a hot dog on a wire rack.,M,0,2,MSR-VTT-videoTestVideo_video8191-shot1_0,Images/MSR-VTT-videoTestVideo_video8191-shot1_0/img0.jpg,Images/MSR-VTT-videoTestVideo_video8191-shot1_0/img3.jpg,Images/MSR-VTT-videoTestVideo_video8191-shot1_0/img16.jpg,Images/MSR-VTT-videoTestVideo_video8191-shot1_0/img20.jpg,Images/MSR-VTT-videoTestVideo_video8191-shot1_0/img28.jpg,Images/MSR-VTT-videoTestVideo_video8191-shot1_0/img39.jpg,Images/MSR-VTT-videoTestVideo_video8191-shot1_0/img51.jpg,Images/MSR-VTT-videoTestVideo_video8191-shot1_0/img57.jpg,Images/MSR-VTT-videoTestVideo_video8191-shot1_0/img60.jpg,Images/MSR-VTT-videoTestVideo_video8191-shot1_0/img63.jpg,722,22,0,2022-06-16_02h36.49.371,annotation,2021.2.3,Win32,60.0024001,,
,,,,,,,,,,,,,,,,,0.513020833,0.1171875,1,0,0,image_4,0,59,59,11,1,220,"There are three motorcycles, the one on the left is almost out of the picture. There is a  police car completely between the left and middle motorcycle. The building in the background is barely touching the left edge of the picture.",H,1,5,MSR-VTT-videoTestVideo_video9773-shot1_0,Images/MSR-VTT-videoTestVideo_video9773-shot1_0/img2.jpg,Images/MSR-VTT-videoTestVideo_video9773-shot1_0/img10.jpg,Images/MSR-VTT-videoTestVideo_video9773-shot1_0/img15.jpg,Images/MSR-VTT-videoTestVideo_video9773-shot1_0/img18.jpg,Images/MSR-VTT-videoTestVideo_video9773-shot1_0/img23.jpg,Images/MSR-VTT-videoTestVideo_video9773-shot1_0/img26.jpg,Images/MSR-VTT-videoTestVideo_video9773-shot1_0/img28.jpg,Images/MSR-VTT-videoTestVideo_video9773-shot1_0/img29.jpg,Images/MSR-VTT-videoTestVideo_video9773-shot1_0/img31.jpg,Images/MSR-VTT-videoTestVideo_video9773-shot1_0/img33.jpg,341,22,0,2022-06-16_02h36.49.371,annotation,2021.2.3,Win32,60.0024001,,
,,,,,,,,,,,,,,,,,0.520833333,-0.143229167,1,0,0,image_9,0,60,60,25,1,1977,A view of a street with a view of a traffic light.,M,0,7,MSR-VTT-videoTestVideo_video9355-shot1_1,Images/MSR-VTT-videoTestVideo_video9355-shot1_1/img47.jpg,Images/MSR-VTT-videoTestVideo_video9355-shot1_1/img50.jpg,Images/MSR-VTT-videoTestVideo_video9355-shot1_1/img54.jpg,Images/MSR-VTT-videoTestVideo_video9355-shot1_1/img59.jpg,Images/MSR-VTT-videoTestVideo_video9355-shot1_1/img69.jpg,Images/MSR-VTT-videoTestVideo_video9355-shot1_1/img73.jpg,Images/MSR-VTT-videoTestVideo_video9355-shot1_1/img75.jpg,Images/MSR-VTT-videoTestVideo_video9355-shot1_1/img78.jpg,Images/MSR-VTT-videoTestVideo_video9355-shot1_1/img82.jpg,Images/MSR-VTT-videoTestVideo_video9355-shot1_1/img97.jpg,932,22,0,2022-06-16_02h36.49.371,annotation,2021.2.3,Win32,60.0024001,,
,,,,,,,,,,,,,,,,,-0.290364583,-0.138020833,1,0,0,image_6,0,61,61,33,1,691,"Very distant shot. The legs of the man holding the briefcase are visible. His legs are together, he is standing still.",H,0,1,MSR-VTT-videoTestVideo_video7692-shot2_1,Images/MSR-VTT-videoTestVideo_video7692-shot2_1/img188.jpg,Images/MSR-VTT-videoTestVideo_video7692-shot2_1/img199.jpg,Images/MSR-VTT-videoTestVideo_video7692-shot2_1/img212.jpg,Images/MSR-VTT-videoTestVideo_video7692-shot2_1/img220.jpg,Images/MSR-VTT-videoTestVideo_video7692-shot2_1/img228.jpg,Images/MSR-VTT-videoTestVideo_video7692-shot2_1/img234.jpg,Images/MSR-VTT-videoTestVideo_video7692-shot2_1/img239.jpg,Images/MSR-VTT-videoTestVideo_video7692-shot2_1/img250.jpg,Images/MSR-VTT-videoTestVideo_video7692-shot2_1/img260.jpg,Images/MSR-VTT-videoTestVideo_video7692-shot2_1/img310.jpg,659,22,0,2022-06-16_02h36.49.371,annotation,2021.2.3,Win32,60.0024001,,
,,,,,,,,,,,,,,,,,0.497395833,-0.14453125,1,0,0,image_9,0,62,62,32,1,1099,A photo of a woman with her face covered by a blanket.,M,1,4,MSR-VTT-videoTestVideo_video8954-shot1_0,Images/MSR-VTT-videoTestVideo_video8954-shot1_0/img0.jpg,Images/MSR-VTT-videoTestVideo_video8954-shot1_0/img2.jpg,Images/MSR-VTT-videoTestVideo_video8954-shot1_0/img8.jpg,Images/MSR-VTT-videoTestVideo_video8954-shot1_0/img15.jpg,Images/MSR-VTT-videoTestVideo_video8954-shot1_0/img20.jpg,Images/MSR-VTT-videoTestVideo_video8954-shot1_0/img21.jpg,Images/MSR-VTT-videoTestVideo_video8954-shot1_0/img22.jpg,Images/MSR-VTT-videoTestVideo_video8954-shot1_0/img24.jpg,Images/MSR-VTT-videoTestVideo_video8954-shot1_0/img26.jpg,Images/MSR-VTT-videoTestVideo_video8954-shot1_0/img27.jpg,1001,22,0,2022-06-16_02h36.49.371,annotation,2021.2.3,Win32,60.0024001,,
,,,,,,,,,,,,,,,,,,,,,,,,,,,,,,,,,,,,,,,,,,,,,,,2022-06-16_02h36.49.371,annotation,2021.2.3,Win32,60.0024001,space,19.723
