mturk,key_resp_2.keys,key_resp_2.rt,key_resp_3.keys,key_resp_3.rt,mouse_2.x,mouse_2.y,mouse_2.leftButton,mouse_2.midButton,mouse_2.rightButton,mouse_2.clicked_name,key_resp_5.keys,key_resp_5.rt,key_resp.keys,key_resp.rt,key_resp_6.keys,key_resp_6.rt,mouse.x,mouse.y,mouse.leftButton,mouse.midButton,mouse.rightButton,mouse.clicked_name,trials.thisRepN,trials.thisTrialN,trials.thisN,trials.thisIndex,trials.ran,N,caption,class_caption,model_guessed,target_idx,image_set,img1,img2,img3,img4,img5,img6,img7,img8,img9,img10,Q_id,block,is_check,date,expName,psychopyVersion,OS,frameRate,key_resp_7.keys,key_resp_7.rt
1195969,space,13.2585,space,4.2646,0.252604167,0.095052083,1,0,0,ex4,space,7.8013,space,9.1004,space,1.2983,-0.2578125,0.110677083,1,0,0,image_1,0,0,0,22,1,867,A bit of the front of the purple bag can be seen in front of the model's body.  Her right arm is starting to swing behind her body. Her right fingers are blurry. ,H,0,6,MSR-VTT-videoTestVideo_video7522-shot5_1,Images/MSR-VTT-videoTestVideo_video7522-shot5_1/img23.jpg,Images/MSR-VTT-videoTestVideo_video7522-shot5_1/img25.jpg,Images/MSR-VTT-videoTestVideo_video7522-shot5_1/img28.jpg,Images/MSR-VTT-videoTestVideo_video7522-shot5_1/img30.jpg,Images/MSR-VTT-videoTestVideo_video7522-shot5_1/img34.jpg,Images/MSR-VTT-videoTestVideo_video7522-shot5_1/img40.jpg,Images/MSR-VTT-videoTestVideo_video7522-shot5_1/img42.jpg,Images/MSR-VTT-videoTestVideo_video7522-shot5_1/img45.jpg,Images/MSR-VTT-videoTestVideo_video7522-shot5_1/img48.jpg,Images/MSR-VTT-videoTestVideo_video7522-shot5_1/img53.jpg,1795,15,0,2022-06-15_22h24.04.723,annotation,2021.2.3,Win32,39.61494276,,
,,,,,,,,,,,,,,,,,0.260416667,0.154947917,1,0,0,image_3,0,1,1,57,1,1028,A hand has an index finger inside the bag and a middle finger outside the bag. The toothbrush is touching the ziplock part of the bag.,H,0,3,video-storytelling-videocamping_EytINruY3-U-shot42_0,Images/video-storytelling-videocamping_EytINruY3-U-shot42_0/img0.jpg,Images/video-storytelling-videocamping_EytINruY3-U-shot42_0/img82.jpg,Images/video-storytelling-videocamping_EytINruY3-U-shot42_0/img123.jpg,Images/video-storytelling-videocamping_EytINruY3-U-shot42_0/img129.jpg,Images/video-storytelling-videocamping_EytINruY3-U-shot42_0/img134.jpg,Images/video-storytelling-videocamping_EytINruY3-U-shot42_0/img165.jpg,Images/video-storytelling-videocamping_EytINruY3-U-shot42_0/img181.jpg,Images/video-storytelling-videocamping_EytINruY3-U-shot42_0/img194.jpg,Images/video-storytelling-videocamping_EytINruY3-U-shot42_0/img211.jpg,Images/video-storytelling-videocamping_EytINruY3-U-shot42_0/img221.jpg,2058,15,0,2022-06-15_22h24.04.723,annotation,2021.2.3,Win32,39.61494276,,
,,,,,,,,,,,,,,,,,0.52734375,-0.135416667,1,0,0,image_9,0,2,2,60,1,2,Green type writer with a red tape. ,H,,9,open-images-531_0dd4eb59d465a8be,Checks/check3/open-images-503_1ccd6fa641154ebbimg7.jpg,Checks/check3/open-images-1852_00faf52058ad28b8img4.jpg,Checks/check3/open-images-386_1b2e28d6d994603eimg1.jpg,Checks/check3/open-images-471_1121e9f97c200ac0img8.jpg,Checks/check3/open-images-1886_3db71eaddb618934img8.jpg,Checks/check3/open-images-1696_20a4ebf0c0f76b05img6.jpg,Checks/check3/open-images-2447_128483a48e1552f4img6.jpg,Checks/check3/open-images-2994_9965cbf8aa20bda0img2.jpg,Checks/check3/open-images-1068_03d63613107970b3img6.jpg,Checks/check3/open-images-531_0dd4eb59d465a8beimg9.jpg,,,1,2022-06-15_22h24.04.723,annotation,2021.2.3,Win32,39.61494276,,
,,,,,,,,,,,,,,,,,-0.244791667,-0.16796875,1,0,0,image_6,0,3,3,53,1,264,The motorcycle helmet is completely off and you can first see the person's mouth. ,H,0,6,MSR-VTT-videoTestVideo_video8657-shot3_0,Images/MSR-VTT-videoTestVideo_video8657-shot3_0/img0.jpg,Images/MSR-VTT-videoTestVideo_video8657-shot3_0/img4.jpg,Images/MSR-VTT-videoTestVideo_video8657-shot3_0/img21.jpg,Images/MSR-VTT-videoTestVideo_video8657-shot3_0/img40.jpg,Images/MSR-VTT-videoTestVideo_video8657-shot3_0/img42.jpg,Images/MSR-VTT-videoTestVideo_video8657-shot3_0/img45.jpg,Images/MSR-VTT-videoTestVideo_video8657-shot3_0/img49.jpg,Images/MSR-VTT-videoTestVideo_video8657-shot3_0/img54.jpg,Images/MSR-VTT-videoTestVideo_video8657-shot3_0/img56.jpg,Images/MSR-VTT-videoTestVideo_video8657-shot3_0/img61.jpg,627,15,0,2022-06-15_22h24.04.723,annotation,2021.2.3,Win32,39.61494276,,
,,,,,,,,,,,,,,,,,0.483072917,-0.126302083,1,0,0,image_9,0,4,4,7,1,1163,A bowl filled with chocolate cake on top of a plate.,M,0,7,YouCook-video0008-shot2_0,Images/YouCook-video0008-shot2_0/img0.jpg,Images/YouCook-video0008-shot2_0/img49.jpg,Images/YouCook-video0008-shot2_0/img56.jpg,Images/YouCook-video0008-shot2_0/img71.jpg,Images/YouCook-video0008-shot2_0/img78.jpg,Images/YouCook-video0008-shot2_0/img215.jpg,Images/YouCook-video0008-shot2_0/img223.jpg,Images/YouCook-video0008-shot2_0/img259.jpg,Images/YouCook-video0008-shot2_0/img293.jpg,Images/YouCook-video0008-shot2_0/img339.jpg,1016,15,0,2022-06-15_22h24.04.723,annotation,2021.2.3,Win32,39.61494276,,
,,,,,,,,,,,,,,,,,0.502604167,0.09375,1,0,0,image_4,0,5,5,12,1,1355,A woman in a red shirt and blue pants is holding a baseball bat.,M,0,2,MSR-VTT-videoTestVideo_video7041-shot0_3,Images/MSR-VTT-videoTestVideo_video7041-shot0_3/img59.jpg,Images/MSR-VTT-videoTestVideo_video7041-shot0_3/img60.jpg,Images/MSR-VTT-videoTestVideo_video7041-shot0_3/img63.jpg,Images/MSR-VTT-videoTestVideo_video7041-shot0_3/img66.jpg,Images/MSR-VTT-videoTestVideo_video7041-shot0_3/img68.jpg,Images/MSR-VTT-videoTestVideo_video7041-shot0_3/img72.jpg,Images/MSR-VTT-videoTestVideo_video7041-shot0_3/img75.jpg,Images/MSR-VTT-videoTestVideo_video7041-shot0_3/img78.jpg,Images/MSR-VTT-videoTestVideo_video7041-shot0_3/img83.jpg,Images/MSR-VTT-videoTestVideo_video7041-shot0_3/img84.jpg,97,15,0,2022-06-15_22h24.04.723,annotation,2021.2.3,Win32,39.61494276,,
,,,,,,,,,,,,,,,,,-0.470052083,-0.154947917,1,0,0,image_5,0,6,6,23,1,1759,A person cutting a piece of cake on top of a plate.,M,0,1,YouCook-video0017-shot2_2,Images/YouCook-video0017-shot2_2/img130.jpg,Images/YouCook-video0017-shot2_2/img134.jpg,Images/YouCook-video0017-shot2_2/img139.jpg,Images/YouCook-video0017-shot2_2/img145.jpg,Images/YouCook-video0017-shot2_2/img146.jpg,Images/YouCook-video0017-shot2_2/img150.jpg,Images/YouCook-video0017-shot2_2/img151.jpg,Images/YouCook-video0017-shot2_2/img152.jpg,Images/YouCook-video0017-shot2_2/img155.jpg,Images/YouCook-video0017-shot2_2/img156.jpg,388,15,0,2022-06-15_22h24.04.723,annotation,2021.2.3,Win32,39.61494276,,
,,,,,,,,,,,,,,,,,0.407552083,0.084635417,1,0,0,image_4,0,7,7,1,1,512,There is a black arrow with writing on it in the bottom left. The pointer finger of the right hand is lifted off the paper.,H,0,8,MSR-VTT-videoTestVideo_video7161-shot0_0,Images/MSR-VTT-videoTestVideo_video7161-shot0_0/img0.jpg,Images/MSR-VTT-videoTestVideo_video7161-shot0_0/img19.jpg,Images/MSR-VTT-videoTestVideo_video7161-shot0_0/img21.jpg,Images/MSR-VTT-videoTestVideo_video7161-shot0_0/img26.jpg,Images/MSR-VTT-videoTestVideo_video7161-shot0_0/img34.jpg,Images/MSR-VTT-videoTestVideo_video7161-shot0_0/img40.jpg,Images/MSR-VTT-videoTestVideo_video7161-shot0_0/img48.jpg,Images/MSR-VTT-videoTestVideo_video7161-shot0_0/img51.jpg,Images/MSR-VTT-videoTestVideo_video7161-shot0_0/img62.jpg,Images/MSR-VTT-videoTestVideo_video7161-shot0_0/img70.jpg,569,15,0,2022-06-15_22h24.04.723,annotation,2021.2.3,Win32,39.61494276,,
,,,,,,,,,,,,,,,,,0.178385417,0.123697917,1,0,0,image_3,0,8,8,5,1,1625,A person is using a computer to make a painting.,M,0,2,MSR-VTT-videoTestVideo_video9279-shot1_1,Images/MSR-VTT-videoTestVideo_video9279-shot1_1/img47.jpg,Images/MSR-VTT-videoTestVideo_video9279-shot1_1/img49.jpg,Images/MSR-VTT-videoTestVideo_video9279-shot1_1/img54.jpg,Images/MSR-VTT-videoTestVideo_video9279-shot1_1/img63.jpg,Images/MSR-VTT-videoTestVideo_video9279-shot1_1/img72.jpg,Images/MSR-VTT-videoTestVideo_video9279-shot1_1/img146.jpg,Images/MSR-VTT-videoTestVideo_video9279-shot1_1/img154.jpg,Images/MSR-VTT-videoTestVideo_video9279-shot1_1/img155.jpg,Images/MSR-VTT-videoTestVideo_video9279-shot1_1/img157.jpg,Images/MSR-VTT-videoTestVideo_video9279-shot1_1/img159.jpg,1097,15,0,2022-06-15_22h24.04.723,annotation,2021.2.3,Win32,39.61494276,,
,,,,,,,,,,,,,,,,,-0.236979167,-0.07421875,1,0,0,image_6,0,9,9,38,1,469,"The blue car is titled slightly down and to the left, and its left back tire is on the lane divider.",H,0,1,MSR-VTT-videoTestVideo_video7662-shot2_0,Images/MSR-VTT-videoTestVideo_video7662-shot2_0/img0.jpg,Images/MSR-VTT-videoTestVideo_video7662-shot2_0/img9.jpg,Images/MSR-VTT-videoTestVideo_video7662-shot2_0/img15.jpg,Images/MSR-VTT-videoTestVideo_video7662-shot2_0/img49.jpg,Images/MSR-VTT-videoTestVideo_video7662-shot2_0/img75.jpg,Images/MSR-VTT-videoTestVideo_video7662-shot2_0/img85.jpg,Images/MSR-VTT-videoTestVideo_video7662-shot2_0/img105.jpg,Images/MSR-VTT-videoTestVideo_video7662-shot2_0/img117.jpg,Images/MSR-VTT-videoTestVideo_video7662-shot2_0/img121.jpg,Images/MSR-VTT-videoTestVideo_video7662-shot2_0/img130.jpg,1883,15,0,2022-06-15_22h24.04.723,annotation,2021.2.3,Win32,39.61494276,,
,,,,,,,,,,,,,,,,,0.440104167,0.138020833,1,0,0,image_4,0,10,10,30,1,1034,The red camera has appeared in the shot and is blocking a lot of the white text. No splashes of color are seen around the text. ,H,0,1,MSR-VTT-videoTestVideo_video8534-shot2_0,Images/MSR-VTT-videoTestVideo_video8534-shot2_0/img0.jpg,Images/MSR-VTT-videoTestVideo_video8534-shot2_0/img1.jpg,Images/MSR-VTT-videoTestVideo_video8534-shot2_0/img3.jpg,Images/MSR-VTT-videoTestVideo_video8534-shot2_0/img4.jpg,Images/MSR-VTT-videoTestVideo_video8534-shot2_0/img5.jpg,Images/MSR-VTT-videoTestVideo_video8534-shot2_0/img8.jpg,Images/MSR-VTT-videoTestVideo_video8534-shot2_0/img12.jpg,Images/MSR-VTT-videoTestVideo_video8534-shot2_0/img14.jpg,Images/MSR-VTT-videoTestVideo_video8534-shot2_0/img20.jpg,Images/MSR-VTT-videoTestVideo_video8534-shot2_0/img26.jpg,1180,15,0,2022-06-15_22h24.04.723,annotation,2021.2.3,Win32,39.61494276,,
,,,,,,,,,,,,,,,,,0.256510417,0.111979167,1,0,0,image_3,0,11,11,20,1,117,the hand is holding the yellow dog dish at a 45 degree angle obscuring the dog,H,0,3,MSR-VTT-videoTestVideo_video9580-shot1_0,Images/MSR-VTT-videoTestVideo_video9580-shot1_0/img1.jpg,Images/MSR-VTT-videoTestVideo_video9580-shot1_0/img10.jpg,Images/MSR-VTT-videoTestVideo_video9580-shot1_0/img32.jpg,Images/MSR-VTT-videoTestVideo_video9580-shot1_0/img71.jpg,Images/MSR-VTT-videoTestVideo_video9580-shot1_0/img73.jpg,Images/MSR-VTT-videoTestVideo_video9580-shot1_0/img78.jpg,Images/MSR-VTT-videoTestVideo_video9580-shot1_0/img101.jpg,Images/MSR-VTT-videoTestVideo_video9580-shot1_0/img105.jpg,Images/MSR-VTT-videoTestVideo_video9580-shot1_0/img111.jpg,Images/MSR-VTT-videoTestVideo_video9580-shot1_0/img115.jpg,1798,15,0,2022-06-15_22h24.04.723,annotation,2021.2.3,Win32,39.61494276,,
,,,,,,,,,,,,,,,,,-0.305989583,-0.1484375,1,0,0,image_6,0,12,12,13,1,463,Half of the head of the camera man's head is visible behind the man in blue on the field.,H,0,3,MSR-VTT-videoTestVideo_video9543-shot1_13,Images/MSR-VTT-videoTestVideo_video9543-shot1_13/img544.jpg,Images/MSR-VTT-videoTestVideo_video9543-shot1_13/img547.jpg,Images/MSR-VTT-videoTestVideo_video9543-shot1_13/img550.jpg,Images/MSR-VTT-videoTestVideo_video9543-shot1_13/img552.jpg,Images/MSR-VTT-videoTestVideo_video9543-shot1_13/img556.jpg,Images/MSR-VTT-videoTestVideo_video9543-shot1_13/img561.jpg,Images/MSR-VTT-videoTestVideo_video9543-shot1_13/img565.jpg,Images/MSR-VTT-videoTestVideo_video9543-shot1_13/img571.jpg,Images/MSR-VTT-videoTestVideo_video9543-shot1_13/img573.jpg,Images/MSR-VTT-videoTestVideo_video9543-shot1_13/img576.jpg,1805,15,0,2022-06-15_22h24.04.723,annotation,2021.2.3,Win32,39.61494276,,
,,,,,,,,,,,,,,,,,0.313802083,-0.130208333,1,0,0,image_8,0,13,13,16,1,1494,A plate topped with a donut on a plate.,M,0,8,MSR-VTT-videoTestVideo_video7973-shot3_0,Images/MSR-VTT-videoTestVideo_video7973-shot3_0/img0.jpg,Images/MSR-VTT-videoTestVideo_video7973-shot3_0/img16.jpg,Images/MSR-VTT-videoTestVideo_video7973-shot3_0/img17.jpg,Images/MSR-VTT-videoTestVideo_video7973-shot3_0/img20.jpg,Images/MSR-VTT-videoTestVideo_video7973-shot3_0/img23.jpg,Images/MSR-VTT-videoTestVideo_video7973-shot3_0/img27.jpg,Images/MSR-VTT-videoTestVideo_video7973-shot3_0/img35.jpg,Images/MSR-VTT-videoTestVideo_video7973-shot3_0/img42.jpg,Images/MSR-VTT-videoTestVideo_video7973-shot3_0/img49.jpg,Images/MSR-VTT-videoTestVideo_video7973-shot3_0/img77.jpg,943,15,0,2022-06-15_22h24.04.723,annotation,2021.2.3,Win32,39.61494276,,
,,,,,,,,,,,,,,,,,0.485677083,-0.119791667,1,0,0,image_9,0,14,14,2,1,1941,Two women standing next to each other in a room.,M,1,3,MSR-VTT-videoTestVideo_video9969-shot1_0,Images/MSR-VTT-videoTestVideo_video9969-shot1_0/img0.jpg,Images/MSR-VTT-videoTestVideo_video9969-shot1_0/img1.jpg,Images/MSR-VTT-videoTestVideo_video9969-shot1_0/img2.jpg,Images/MSR-VTT-videoTestVideo_video9969-shot1_0/img4.jpg,Images/MSR-VTT-videoTestVideo_video9969-shot1_0/img5.jpg,Images/MSR-VTT-videoTestVideo_video9969-shot1_0/img18.jpg,Images/MSR-VTT-videoTestVideo_video9969-shot1_0/img41.jpg,Images/MSR-VTT-videoTestVideo_video9969-shot1_0/img60.jpg,Images/MSR-VTT-videoTestVideo_video9969-shot1_0/img108.jpg,Images/MSR-VTT-videoTestVideo_video9969-shot1_0/img146.jpg,1467,15,0,2022-06-15_22h24.04.723,annotation,2021.2.3,Win32,39.61494276,,
,,,,,,,,,,,,,,,,,0.282552083,0.119791667,1,0,0,image_3,0,15,15,55,1,302,There is a bridge visible on the right side of the image. The bottom of the bride's dress is cut off by the bottom edge of the image. ,H,1,5,video-storytelling-videowedding_46xhFCXBMJs-shot89_5,Images/video-storytelling-videowedding_46xhFCXBMJs-shot89_5/img373.jpg,Images/video-storytelling-videowedding_46xhFCXBMJs-shot89_5/img378.jpg,Images/video-storytelling-videowedding_46xhFCXBMJs-shot89_5/img380.jpg,Images/video-storytelling-videowedding_46xhFCXBMJs-shot89_5/img385.jpg,Images/video-storytelling-videowedding_46xhFCXBMJs-shot89_5/img387.jpg,Images/video-storytelling-videowedding_46xhFCXBMJs-shot89_5/img392.jpg,Images/video-storytelling-videowedding_46xhFCXBMJs-shot89_5/img399.jpg,Images/video-storytelling-videowedding_46xhFCXBMJs-shot89_5/img402.jpg,Images/video-storytelling-videowedding_46xhFCXBMJs-shot89_5/img406.jpg,Images/video-storytelling-videowedding_46xhFCXBMJs-shot89_5/img409.jpg,1682,15,0,2022-06-15_22h24.04.723,annotation,2021.2.3,Win32,39.61494276,,
,,,,,,,,,,,,,,,,,-0.221354167,-0.104166667,1,0,0,image_6,0,16,16,25,1,1713,A man in a suit and tie stands in front of a group of people.,M,0,5,MSR-VTT-videoTestVideo_video9608-shot8_0,Images/MSR-VTT-videoTestVideo_video9608-shot8_0/img0.jpg,Images/MSR-VTT-videoTestVideo_video9608-shot8_0/img10.jpg,Images/MSR-VTT-videoTestVideo_video9608-shot8_0/img24.jpg,Images/MSR-VTT-videoTestVideo_video9608-shot8_0/img28.jpg,Images/MSR-VTT-videoTestVideo_video9608-shot8_0/img34.jpg,Images/MSR-VTT-videoTestVideo_video9608-shot8_0/img39.jpg,Images/MSR-VTT-videoTestVideo_video9608-shot8_0/img46.jpg,Images/MSR-VTT-videoTestVideo_video9608-shot8_0/img51.jpg,Images/MSR-VTT-videoTestVideo_video9608-shot8_0/img74.jpg,Images/MSR-VTT-videoTestVideo_video9608-shot8_0/img83.jpg,533,15,0,2022-06-15_22h24.04.723,annotation,2021.2.3,Win32,39.61494276,,
,,,,,,,,,,,,,,,,,0.444010417,0.125,1,0,0,image_4,0,17,17,34,1,792,The bride is laying her hands on the grooms face. Her fingers are placed below his ear.,H,1,0,video-storytelling-videowedding_de8dLXvgV-I-shot139_0,Images/video-storytelling-videowedding_de8dLXvgV-I-shot139_0/img0.jpg,Images/video-storytelling-videowedding_de8dLXvgV-I-shot139_0/img19.jpg,Images/video-storytelling-videowedding_de8dLXvgV-I-shot139_0/img120.jpg,Images/video-storytelling-videowedding_de8dLXvgV-I-shot139_0/img144.jpg,Images/video-storytelling-videowedding_de8dLXvgV-I-shot139_0/img213.jpg,Images/video-storytelling-videowedding_de8dLXvgV-I-shot139_0/img226.jpg,Images/video-storytelling-videowedding_de8dLXvgV-I-shot139_0/img251.jpg,Images/video-storytelling-videowedding_de8dLXvgV-I-shot139_0/img272.jpg,Images/video-storytelling-videowedding_de8dLXvgV-I-shot139_0/img285.jpg,Images/video-storytelling-videowedding_de8dLXvgV-I-shot139_0/img300.jpg,1571,15,0,2022-06-15_22h24.04.723,annotation,2021.2.3,Win32,39.61494276,,
,,,,,,,,,,,,,,,,,-0.270833333,-0.072916667,1,0,0,image_6,0,18,18,56,1,564,Scissors are cutting the middle of a leg. A transparent image of a pan is faintly seen especially to the left.,H,1,5,YouCook-video0023-shot1_0,Images/YouCook-video0023-shot1_0/img0.jpg,Images/YouCook-video0023-shot1_0/img8.jpg,Images/YouCook-video0023-shot1_0/img12.jpg,Images/YouCook-video0023-shot1_0/img18.jpg,Images/YouCook-video0023-shot1_0/img20.jpg,Images/YouCook-video0023-shot1_0/img24.jpg,Images/YouCook-video0023-shot1_0/img41.jpg,Images/YouCook-video0023-shot1_0/img147.jpg,Images/YouCook-video0023-shot1_0/img194.jpg,Images/YouCook-video0023-shot1_0/img226.jpg,1321,15,0,2022-06-15_22h24.04.723,annotation,2021.2.3,Win32,39.61494276,,
,,,,,,,,,,,,,,,,,0.259114583,0.119791667,1,0,0,image_3,0,19,19,40,1,34,The headlight on the blue car to the left is not yet visible. ,H,0,0,MSR-VTT-videoTestVideo_video7692-shot2_3,Images/MSR-VTT-videoTestVideo_video7692-shot2_3/img507.jpg,Images/MSR-VTT-videoTestVideo_video7692-shot2_3/img508.jpg,Images/MSR-VTT-videoTestVideo_video7692-shot2_3/img515.jpg,Images/MSR-VTT-videoTestVideo_video7692-shot2_3/img522.jpg,Images/MSR-VTT-videoTestVideo_video7692-shot2_3/img527.jpg,Images/MSR-VTT-videoTestVideo_video7692-shot2_3/img531.jpg,Images/MSR-VTT-videoTestVideo_video7692-shot2_3/img539.jpg,Images/MSR-VTT-videoTestVideo_video7692-shot2_3/img603.jpg,Images/MSR-VTT-videoTestVideo_video7692-shot2_3/img632.jpg,Images/MSR-VTT-videoTestVideo_video7692-shot2_3/img639.jpg,122,15,0,2022-06-15_22h24.04.723,annotation,2021.2.3,Win32,39.61494276,,
,,,,,,,,,,,,,,,,,0.041666667,-0.15234375,1,0,0,image_7,0,20,20,15,1,2040,a couple of hot dogs on a plate.,M,0,3,video-storytelling-videocamping_dBXYM3dQTSo-shot69_4,Images/video-storytelling-videocamping_dBXYM3dQTSo-shot69_4/img214.jpg,Images/video-storytelling-videocamping_dBXYM3dQTSo-shot69_4/img221.jpg,Images/video-storytelling-videocamping_dBXYM3dQTSo-shot69_4/img223.jpg,Images/video-storytelling-videocamping_dBXYM3dQTSo-shot69_4/img226.jpg,Images/video-storytelling-videocamping_dBXYM3dQTSo-shot69_4/img235.jpg,Images/video-storytelling-videocamping_dBXYM3dQTSo-shot69_4/img237.jpg,Images/video-storytelling-videocamping_dBXYM3dQTSo-shot69_4/img243.jpg,Images/video-storytelling-videocamping_dBXYM3dQTSo-shot69_4/img246.jpg,Images/video-storytelling-videocamping_dBXYM3dQTSo-shot69_4/img249.jpg,Images/video-storytelling-videocamping_dBXYM3dQTSo-shot69_4/img255.jpg,229,15,0,2022-06-15_22h24.04.723,annotation,2021.2.3,Win32,39.61494276,,
,,,,,,,,,,,,,,,,,0.03125,0.141927083,1,0,0,image_2,0,21,21,58,1,0,Pair of black gloves,H,,2,open-images-510_3a241cb30d6e5319,Checks/check1/open-images-225_1442c0d0ef23d58bimg3.jpg,Checks/check1/open-images-2759_3a42708fe77398b7img8.jpg,Checks/check1/open-images-510_3a241cb30d6e5319img2.jpg,Checks/check1/open-images-2209_02c98146fb93ff17img1.jpg,Checks/check1/open-images-1553_0f128317e56a9d2fimg9.jpg,Checks/check1/open-images-2666_044d7c6d11e6b493img8.jpg,Checks/check1/open-images-2880_159294646083f545img4.jpg,Checks/check1/open-images-609_2dc0baa993a2bd25img5.jpg,Checks/check1/open-images-1854_2b15616b4f1080e7img2.jpg,Checks/check1/open-images-1435_1b0ce31951048765img8.jpg,,,1,2022-06-15_22h24.04.723,annotation,2021.2.3,Win32,39.61494276,,
,,,,,,,,,,,,,,,,,-0.516927083,-0.174479167,1,0,0,image_5,0,22,22,59,1,1,The only picture of a hawk.  It is looking to the left.  You see lots of branches and darker blue sky. ,H,,5,open-images-958_686caac9c5b322e7,Checks/check2/open-images-2603_1b5152f01f0093e7img3.jpg,Checks/check2/open-images-1836_069810916ce5d675img8.jpg,Checks/check2/open-images-974_0748fdedc4bf8b7bimg2.jpg,Checks/check2/open-images-617_01fb725fb1aa7b04img6.jpg,Checks/check2/open-images-507_047769e1f977cd97img2.jpg,Checks/check2/open-images-958_686caac9c5b322e7img5.jpg,Checks/check2/open-images-1278_21851d9bf5dc05c9img7.jpg,Checks/check2/open-images-2424_05f04546e01499f2img0.jpg,Checks/check2/open-images-1529_1442b11a10a6aeadimg3.jpg,Checks/check2/open-images-514_2c523ddedc2561d4img1.jpg,,,1,2022-06-15_22h24.04.723,annotation,2021.2.3,Win32,39.61494276,,
,,,,,,,,,,,,,,,,,-0.451822917,-0.119791667,1,0,0,image_5,0,23,23,14,1,921,"The image is mid-transition between images. The bride is looking at another female, who is looking off screen to the right and her mouth is slightly open.",H,0,1,video-storytelling-videowedding_Bp8t824h5NE-shot59_1,Images/video-storytelling-videowedding_Bp8t824h5NE-shot59_1/img2110.jpg,Images/video-storytelling-videowedding_Bp8t824h5NE-shot59_1/img2195.jpg,Images/video-storytelling-videowedding_Bp8t824h5NE-shot59_1/img2202.jpg,Images/video-storytelling-videowedding_Bp8t824h5NE-shot59_1/img2207.jpg,Images/video-storytelling-videowedding_Bp8t824h5NE-shot59_1/img2214.jpg,Images/video-storytelling-videowedding_Bp8t824h5NE-shot59_1/img2222.jpg,Images/video-storytelling-videowedding_Bp8t824h5NE-shot59_1/img2258.jpg,Images/video-storytelling-videowedding_Bp8t824h5NE-shot59_1/img2270.jpg,Images/video-storytelling-videowedding_Bp8t824h5NE-shot59_1/img2285.jpg,Images/video-storytelling-videowedding_Bp8t824h5NE-shot59_1/img2365.jpg,965,15,0,2022-06-15_22h24.04.723,annotation,2021.2.3,Win32,39.61494276,,
,,,,,,,,,,,,,,,,,0.209635417,0.10546875,1,0,0,image_3,0,24,24,11,1,489,The hand is under the collar area of the orange jacket. It's not close to his chin.,H,0,5,video-storytelling-videobirthday__amwPjAcoC8-shot78_0,Images/video-storytelling-videobirthday__amwPjAcoC8-shot78_0/img0.jpg,Images/video-storytelling-videobirthday__amwPjAcoC8-shot78_0/img1.jpg,Images/video-storytelling-videobirthday__amwPjAcoC8-shot78_0/img2.jpg,Images/video-storytelling-videobirthday__amwPjAcoC8-shot78_0/img4.jpg,Images/video-storytelling-videobirthday__amwPjAcoC8-shot78_0/img6.jpg,Images/video-storytelling-videobirthday__amwPjAcoC8-shot78_0/img7.jpg,Images/video-storytelling-videobirthday__amwPjAcoC8-shot78_0/img9.jpg,Images/video-storytelling-videobirthday__amwPjAcoC8-shot78_0/img12.jpg,Images/video-storytelling-videobirthday__amwPjAcoC8-shot78_0/img13.jpg,Images/video-storytelling-videobirthday__amwPjAcoC8-shot78_0/img15.jpg,1698,15,0,2022-06-15_22h24.04.723,annotation,2021.2.3,Win32,39.61494276,,
,,,,,,,,,,,,,,,,,0.432291667,0.12109375,1,0,0,image_4,0,25,25,37,1,1168,A man standing next to a table full of food.,M,0,4,MSR-VTT-videoTestVideo_video7999-shot1_0,Images/MSR-VTT-videoTestVideo_video7999-shot1_0/img0.jpg,Images/MSR-VTT-videoTestVideo_video7999-shot1_0/img5.jpg,Images/MSR-VTT-videoTestVideo_video7999-shot1_0/img8.jpg,Images/MSR-VTT-videoTestVideo_video7999-shot1_0/img14.jpg,Images/MSR-VTT-videoTestVideo_video7999-shot1_0/img21.jpg,Images/MSR-VTT-videoTestVideo_video7999-shot1_0/img25.jpg,Images/MSR-VTT-videoTestVideo_video7999-shot1_0/img30.jpg,Images/MSR-VTT-videoTestVideo_video7999-shot1_0/img33.jpg,Images/MSR-VTT-videoTestVideo_video7999-shot1_0/img36.jpg,Images/MSR-VTT-videoTestVideo_video7999-shot1_0/img43.jpg,1829,15,0,2022-06-15_22h24.04.723,annotation,2021.2.3,Win32,39.61494276,,
,,,,,,,,,,,,,,,,,-0.497395833,-0.091145833,1,0,0,image_5,0,26,26,44,1,145,The girl's face is blurry with her hair covering the right side. Her face is looking up.,H,0,5,MSR-VTT-videoTestVideo_video8058-shot1_0,Images/MSR-VTT-videoTestVideo_video8058-shot1_0/img0.jpg,Images/MSR-VTT-videoTestVideo_video8058-shot1_0/img18.jpg,Images/MSR-VTT-videoTestVideo_video8058-shot1_0/img33.jpg,Images/MSR-VTT-videoTestVideo_video8058-shot1_0/img37.jpg,Images/MSR-VTT-videoTestVideo_video8058-shot1_0/img73.jpg,Images/MSR-VTT-videoTestVideo_video8058-shot1_0/img103.jpg,Images/MSR-VTT-videoTestVideo_video8058-shot1_0/img153.jpg,Images/MSR-VTT-videoTestVideo_video8058-shot1_0/img188.jpg,Images/MSR-VTT-videoTestVideo_video8058-shot1_0/img191.jpg,Images/MSR-VTT-videoTestVideo_video8058-shot1_0/img195.jpg,604,15,0,2022-06-15_22h24.04.723,annotation,2021.2.3,Win32,39.61494276,,
,,,,,,,,,,,,,,,,,0.518229167,-0.151041667,1,0,0,image_9,0,27,27,17,1,1076,A man standing in front of a fence.,M,1,7,MSR-VTT-videoTestVideo_video7174-shot1_1,Images/MSR-VTT-videoTestVideo_video7174-shot1_1/img71.jpg,Images/MSR-VTT-videoTestVideo_video7174-shot1_1/img82.jpg,Images/MSR-VTT-videoTestVideo_video7174-shot1_1/img86.jpg,Images/MSR-VTT-videoTestVideo_video7174-shot1_1/img98.jpg,Images/MSR-VTT-videoTestVideo_video7174-shot1_1/img107.jpg,Images/MSR-VTT-videoTestVideo_video7174-shot1_1/img116.jpg,Images/MSR-VTT-videoTestVideo_video7174-shot1_1/img128.jpg,Images/MSR-VTT-videoTestVideo_video7174-shot1_1/img135.jpg,Images/MSR-VTT-videoTestVideo_video7174-shot1_1/img149.jpg,Images/MSR-VTT-videoTestVideo_video7174-shot1_1/img158.jpg,334,15,0,2022-06-15_22h24.04.723,annotation,2021.2.3,Win32,39.61494276,,
,,,,,,,,,,,,,,,,,0.30859375,0.12890625,1,0,0,image_3,0,28,28,9,1,960,The man with the umbrella is looking up while the woman on the right's shoulder is aligned with the edge of the image.,H,0,6,video-storytelling-videowedding_de8dLXvgV-I-shot5_6,Images/video-storytelling-videowedding_de8dLXvgV-I-shot5_6/img248.jpg,Images/video-storytelling-videowedding_de8dLXvgV-I-shot5_6/img250.jpg,Images/video-storytelling-videowedding_de8dLXvgV-I-shot5_6/img253.jpg,Images/video-storytelling-videowedding_de8dLXvgV-I-shot5_6/img254.jpg,Images/video-storytelling-videowedding_de8dLXvgV-I-shot5_6/img256.jpg,Images/video-storytelling-videowedding_de8dLXvgV-I-shot5_6/img260.jpg,Images/video-storytelling-videowedding_de8dLXvgV-I-shot5_6/img265.jpg,Images/video-storytelling-videowedding_de8dLXvgV-I-shot5_6/img267.jpg,Images/video-storytelling-videowedding_de8dLXvgV-I-shot5_6/img269.jpg,Images/video-storytelling-videowedding_de8dLXvgV-I-shot5_6/img273.jpg,1732,15,0,2022-06-15_22h24.04.723,annotation,2021.2.3,Win32,39.61494276,,
,,,,,,,,,,,,,,,,,-0.217447917,0.11328125,1,0,0,image_1,0,29,29,24,1,57,The man is shooting a three pointer and his feet are still on the ground. ,H,0,3,MSR-VTT-videoTestVideo_video8715-shot0_0,Images/MSR-VTT-videoTestVideo_video8715-shot0_0/img0.jpg,Images/MSR-VTT-videoTestVideo_video8715-shot0_0/img7.jpg,Images/MSR-VTT-videoTestVideo_video8715-shot0_0/img15.jpg,Images/MSR-VTT-videoTestVideo_video8715-shot0_0/img19.jpg,Images/MSR-VTT-videoTestVideo_video8715-shot0_0/img28.jpg,Images/MSR-VTT-videoTestVideo_video8715-shot0_0/img33.jpg,Images/MSR-VTT-videoTestVideo_video8715-shot0_0/img35.jpg,Images/MSR-VTT-videoTestVideo_video8715-shot0_0/img39.jpg,Images/MSR-VTT-videoTestVideo_video8715-shot0_0/img47.jpg,Images/MSR-VTT-videoTestVideo_video8715-shot0_0/img50.jpg,1154,15,0,2022-06-15_22h24.04.723,annotation,2021.2.3,Win32,39.61494276,,
,,,,,,,,,,,,,,,,,0.458333333,-0.1640625,1,0,0,image_9,0,30,30,54,1,1486,A woman sitting in a chair eating a sandwich.,M,0,4,MSR-VTT-videoTestVideo_video7533-shot1_8,Images/MSR-VTT-videoTestVideo_video7533-shot1_8/img687.jpg,Images/MSR-VTT-videoTestVideo_video7533-shot1_8/img689.jpg,Images/MSR-VTT-videoTestVideo_video7533-shot1_8/img692.jpg,Images/MSR-VTT-videoTestVideo_video7533-shot1_8/img697.jpg,Images/MSR-VTT-videoTestVideo_video7533-shot1_8/img709.jpg,Images/MSR-VTT-videoTestVideo_video7533-shot1_8/img714.jpg,Images/MSR-VTT-videoTestVideo_video7533-shot1_8/img721.jpg,Images/MSR-VTT-videoTestVideo_video7533-shot1_8/img734.jpg,Images/MSR-VTT-videoTestVideo_video7533-shot1_8/img738.jpg,Images/MSR-VTT-videoTestVideo_video7533-shot1_8/img756.jpg,1871,15,0,2022-06-15_22h24.04.723,annotation,2021.2.3,Win32,39.61494276,,
,,,,,,,,,,,,,,,,,-0.462239583,-0.125,1,0,0,image_5,0,31,31,49,1,70,The person's hand on the right is covering up most of his face but you can still see a bit of his sunglasses. ,H,0,1,MSR-VTT-videoTestVideo_video7465-shot7_0,Images/MSR-VTT-videoTestVideo_video7465-shot7_0/img0.jpg,Images/MSR-VTT-videoTestVideo_video7465-shot7_0/img1.jpg,Images/MSR-VTT-videoTestVideo_video7465-shot7_0/img2.jpg,Images/MSR-VTT-videoTestVideo_video7465-shot7_0/img3.jpg,Images/MSR-VTT-videoTestVideo_video7465-shot7_0/img7.jpg,Images/MSR-VTT-videoTestVideo_video7465-shot7_0/img11.jpg,Images/MSR-VTT-videoTestVideo_video7465-shot7_0/img16.jpg,Images/MSR-VTT-videoTestVideo_video7465-shot7_0/img21.jpg,Images/MSR-VTT-videoTestVideo_video7465-shot7_0/img26.jpg,Images/MSR-VTT-videoTestVideo_video7465-shot7_0/img30.jpg,201,15,0,2022-06-15_22h24.04.723,annotation,2021.2.3,Win32,39.61494276,,
,,,,,,,,,,,,,,,,,-0.0390625,-0.126302083,1,0,0,image_7,0,32,32,26,1,1827,A man is posing for a picture in a park.,M,0,5,MSR-VTT-videoTestVideo_video7174-shot1_0,Images/MSR-VTT-videoTestVideo_video7174-shot1_0/img0.jpg,Images/MSR-VTT-videoTestVideo_video7174-shot1_0/img18.jpg,Images/MSR-VTT-videoTestVideo_video7174-shot1_0/img24.jpg,Images/MSR-VTT-videoTestVideo_video7174-shot1_0/img27.jpg,Images/MSR-VTT-videoTestVideo_video7174-shot1_0/img29.jpg,Images/MSR-VTT-videoTestVideo_video7174-shot1_0/img32.jpg,Images/MSR-VTT-videoTestVideo_video7174-shot1_0/img38.jpg,Images/MSR-VTT-videoTestVideo_video7174-shot1_0/img46.jpg,Images/MSR-VTT-videoTestVideo_video7174-shot1_0/img58.jpg,Images/MSR-VTT-videoTestVideo_video7174-shot1_0/img70.jpg,221,15,0,2022-06-15_22h24.04.723,annotation,2021.2.3,Win32,39.61494276,,
,,,,,,,,,,,,,,,,,0.26953125,-0.063802083,1,0,0,image_8,0,33,33,29,1,387,Two men are facing each other. Man on left has a confused look. Both of their mouths are closed. Man on left looks like they have their eyes closed or barely opened.,H,0,4,MSR-VTT-videoTestVideo_video9579-shot1_0,Images/MSR-VTT-videoTestVideo_video9579-shot1_0/img0.jpg,Images/MSR-VTT-videoTestVideo_video9579-shot1_0/img7.jpg,Images/MSR-VTT-videoTestVideo_video9579-shot1_0/img29.jpg,Images/MSR-VTT-videoTestVideo_video9579-shot1_0/img36.jpg,Images/MSR-VTT-videoTestVideo_video9579-shot1_0/img51.jpg,Images/MSR-VTT-videoTestVideo_video9579-shot1_0/img84.jpg,Images/MSR-VTT-videoTestVideo_video9579-shot1_0/img98.jpg,Images/MSR-VTT-videoTestVideo_video9579-shot1_0/img125.jpg,Images/MSR-VTT-videoTestVideo_video9579-shot1_0/img151.jpg,Images/MSR-VTT-videoTestVideo_video9579-shot1_0/img197.jpg,2022,15,0,2022-06-15_22h24.04.723,annotation,2021.2.3,Win32,39.61494276,,
,,,,,,,,,,,,,,,,,-0.243489583,0.13671875,1,0,0,image_1,0,34,34,62,1,4,A penguin holding a piece of paper with text on it. ,H,,1,open-images-2521_074d6af730ed17a6,Checks/check5/open-images-509_4d8bd994cb8c6eaeimg0.jpg,Checks/check5/open-images-2521_074d6af730ed17a6img1.jpg,Checks/check5/open-images-1365_a00a5fde334ae45aimg4.jpg,Checks/check5/open-images-1602_44092afdeab39e73img6.jpg,Checks/check5/open-images-1032_059f3cdfb85ee0ceimg3.jpg,Checks/check5/open-images-727_25b77fff36adba66img2.jpg,Checks/check5/open-images-2208_0fb92b9978d98575img2.jpg,Checks/check5/open-images-1305_05769e6abb16fdc8img9.jpg,Checks/check5/open-images-2676_052dbf7b4899430bimg1.jpg,Checks/check5/open-images-2569_1e81d79bb796a2dbimg7.jpg,,,1,2022-06-15_22h24.04.723,annotation,2021.2.3,Win32,39.61494276,,
,,,,,,,,,,,,,,,,,0.21875,0.140625,1,0,0,image_3,0,35,35,36,1,51,The right exhaust can't be seen for the first time in the image.  You can start to see a brick object on the upper left corner of the image. ,H,0,7,MSR-VTT-videoTestVideo_video9975-shot1_0,Images/MSR-VTT-videoTestVideo_video9975-shot1_0/img0.jpg,Images/MSR-VTT-videoTestVideo_video9975-shot1_0/img5.jpg,Images/MSR-VTT-videoTestVideo_video9975-shot1_0/img16.jpg,Images/MSR-VTT-videoTestVideo_video9975-shot1_0/img25.jpg,Images/MSR-VTT-videoTestVideo_video9975-shot1_0/img50.jpg,Images/MSR-VTT-videoTestVideo_video9975-shot1_0/img63.jpg,Images/MSR-VTT-videoTestVideo_video9975-shot1_0/img67.jpg,Images/MSR-VTT-videoTestVideo_video9975-shot1_0/img80.jpg,Images/MSR-VTT-videoTestVideo_video9975-shot1_0/img85.jpg,Images/MSR-VTT-videoTestVideo_video9975-shot1_0/img89.jpg,826,15,0,2022-06-15_22h24.04.723,annotation,2021.2.3,Win32,39.61494276,,
,,,,,,,,,,,,,,,,,-0.247395833,-0.07421875,1,0,0,image_6,0,36,36,18,1,251,The person away from the camera has completely disappeared.  All you can see is a portion of the rack on the floor,H,1,4,MSR-VTT-videoTestVideo_video8574-shot1_0,Images/MSR-VTT-videoTestVideo_video8574-shot1_0/img0.jpg,Images/MSR-VTT-videoTestVideo_video8574-shot1_0/img5.jpg,Images/MSR-VTT-videoTestVideo_video8574-shot1_0/img8.jpg,Images/MSR-VTT-videoTestVideo_video8574-shot1_0/img9.jpg,Images/MSR-VTT-videoTestVideo_video8574-shot1_0/img11.jpg,Images/MSR-VTT-videoTestVideo_video8574-shot1_0/img13.jpg,Images/MSR-VTT-videoTestVideo_video8574-shot1_0/img15.jpg,Images/MSR-VTT-videoTestVideo_video8574-shot1_0/img19.jpg,Images/MSR-VTT-videoTestVideo_video8574-shot1_0/img23.jpg,Images/MSR-VTT-videoTestVideo_video8574-shot1_0/img31.jpg,1167,15,0,2022-06-15_22h24.04.723,annotation,2021.2.3,Win32,39.61494276,,
,,,,,,,,,,,,,,,,,0.403645833,0.153645833,1,0,0,image_4,0,37,37,41,1,1513,A truck driving down a highway with cars on the side of the road.,M,0,1,MSR-VTT-videoTestVideo_video7662-shot2_0,Images/MSR-VTT-videoTestVideo_video7662-shot2_0/img0.jpg,Images/MSR-VTT-videoTestVideo_video7662-shot2_0/img9.jpg,Images/MSR-VTT-videoTestVideo_video7662-shot2_0/img15.jpg,Images/MSR-VTT-videoTestVideo_video7662-shot2_0/img49.jpg,Images/MSR-VTT-videoTestVideo_video7662-shot2_0/img75.jpg,Images/MSR-VTT-videoTestVideo_video7662-shot2_0/img85.jpg,Images/MSR-VTT-videoTestVideo_video7662-shot2_0/img105.jpg,Images/MSR-VTT-videoTestVideo_video7662-shot2_0/img117.jpg,Images/MSR-VTT-videoTestVideo_video7662-shot2_0/img121.jpg,Images/MSR-VTT-videoTestVideo_video7662-shot2_0/img130.jpg,1255,15,0,2022-06-15_22h24.04.723,annotation,2021.2.3,Win32,39.61494276,,
,,,,,,,,,,,,,,,,,0.225260417,0.145833333,1,0,0,image_3,0,38,38,48,1,29,The ball has just left the hands of the person with the red jersey.  ,H,0,5,MSR-VTT-videoTestVideo_video8013-shot1_0,Images/MSR-VTT-videoTestVideo_video8013-shot1_0/img0.jpg,Images/MSR-VTT-videoTestVideo_video8013-shot1_0/img1.jpg,Images/MSR-VTT-videoTestVideo_video8013-shot1_0/img10.jpg,Images/MSR-VTT-videoTestVideo_video8013-shot1_0/img12.jpg,Images/MSR-VTT-videoTestVideo_video8013-shot1_0/img18.jpg,Images/MSR-VTT-videoTestVideo_video8013-shot1_0/img20.jpg,Images/MSR-VTT-videoTestVideo_video8013-shot1_0/img24.jpg,Images/MSR-VTT-videoTestVideo_video8013-shot1_0/img25.jpg,Images/MSR-VTT-videoTestVideo_video8013-shot1_0/img30.jpg,Images/MSR-VTT-videoTestVideo_video8013-shot1_0/img31.jpg,1076,15,0,2022-06-15_22h24.04.723,annotation,2021.2.3,Win32,39.61494276,,
,,,,,,,,,,,,,,,,,-0.328125,-0.126302083,1,0,0,image_6,0,39,39,33,1,425,The man holds a spoon up in front of him and the tip of the spoon is not seen.,H,0,4,video-storytelling-videocamping_EytINruY3-U-shot60_0,Images/video-storytelling-videocamping_EytINruY3-U-shot60_0/img0.jpg,Images/video-storytelling-videocamping_EytINruY3-U-shot60_0/img36.jpg,Images/video-storytelling-videocamping_EytINruY3-U-shot60_0/img54.jpg,Images/video-storytelling-videocamping_EytINruY3-U-shot60_0/img130.jpg,Images/video-storytelling-videocamping_EytINruY3-U-shot60_0/img136.jpg,Images/video-storytelling-videocamping_EytINruY3-U-shot60_0/img275.jpg,Images/video-storytelling-videocamping_EytINruY3-U-shot60_0/img281.jpg,Images/video-storytelling-videocamping_EytINruY3-U-shot60_0/img319.jpg,Images/video-storytelling-videocamping_EytINruY3-U-shot60_0/img344.jpg,Images/video-storytelling-videocamping_EytINruY3-U-shot60_0/img355.jpg,1737,15,0,2022-06-15_22h24.04.723,annotation,2021.2.3,Win32,39.61494276,,
,,,,,,,,,,,,,,,,,-0.26953125,-0.059895833,1,0,0,image_6,0,40,40,28,1,402,The woman on the back of the bike has just moved her hands down to the sides of the man in front. ,H,0,3,MSR-VTT-videoTestVideo_video8513-shot4_0,Images/MSR-VTT-videoTestVideo_video8513-shot4_0/img0.jpg,Images/MSR-VTT-videoTestVideo_video8513-shot4_0/img10.jpg,Images/MSR-VTT-videoTestVideo_video8513-shot4_0/img58.jpg,Images/MSR-VTT-videoTestVideo_video8513-shot4_0/img73.jpg,Images/MSR-VTT-videoTestVideo_video8513-shot4_0/img97.jpg,Images/MSR-VTT-videoTestVideo_video8513-shot4_0/img114.jpg,Images/MSR-VTT-videoTestVideo_video8513-shot4_0/img115.jpg,Images/MSR-VTT-videoTestVideo_video8513-shot4_0/img119.jpg,Images/MSR-VTT-videoTestVideo_video8513-shot4_0/img123.jpg,Images/MSR-VTT-videoTestVideo_video8513-shot4_0/img131.jpg,1620,15,0,2022-06-15_22h24.04.723,annotation,2021.2.3,Win32,39.61494276,,
,,,,,,,,,,,,,,,,,0.2421875,0.14453125,1,0,0,image_3,0,41,41,19,1,1780,A woman holding a tray of carrots on a table.,M,0,7,YouCook-video0016-shot3_1,Images/YouCook-video0016-shot3_1/img166.jpg,Images/YouCook-video0016-shot3_1/img183.jpg,Images/YouCook-video0016-shot3_1/img208.jpg,Images/YouCook-video0016-shot3_1/img215.jpg,Images/YouCook-video0016-shot3_1/img324.jpg,Images/YouCook-video0016-shot3_1/img327.jpg,Images/YouCook-video0016-shot3_1/img333.jpg,Images/YouCook-video0016-shot3_1/img349.jpg,Images/YouCook-video0016-shot3_1/img373.jpg,Images/YouCook-video0016-shot3_1/img388.jpg,970,15,0,2022-06-15_22h24.04.723,annotation,2021.2.3,Win32,39.61494276,,
,,,,,,,,,,,,,,,,,0.497395833,0.102864583,1,0,0,image_4,0,42,42,52,1,1519,A person is cooking a cake on a plate.,M,1,4,YouCook-video0008-shot2_1,Images/YouCook-video0008-shot2_1/img340.jpg,Images/YouCook-video0008-shot2_1/img343.jpg,Images/YouCook-video0008-shot2_1/img347.jpg,Images/YouCook-video0008-shot2_1/img350.jpg,Images/YouCook-video0008-shot2_1/img352.jpg,Images/YouCook-video0008-shot2_1/img377.jpg,Images/YouCook-video0008-shot2_1/img387.jpg,Images/YouCook-video0008-shot2_1/img403.jpg,Images/YouCook-video0008-shot2_1/img405.jpg,Images/YouCook-video0008-shot2_1/img422.jpg,1709,15,0,2022-06-15_22h24.04.723,annotation,2021.2.3,Win32,39.61494276,,
,,,,,,,,,,,,,,,,,-0.24609375,-0.084635417,1,0,0,image_6,0,43,43,35,1,298,The guy's eyes are open and looking forward. ,H,0,8,video-storytelling-videocamping_EytINruY3-U-shot8_0,Images/video-storytelling-videocamping_EytINruY3-U-shot8_0/img0.jpg,Images/video-storytelling-videocamping_EytINruY3-U-shot8_0/img3.jpg,Images/video-storytelling-videocamping_EytINruY3-U-shot8_0/img8.jpg,Images/video-storytelling-videocamping_EytINruY3-U-shot8_0/img11.jpg,Images/video-storytelling-videocamping_EytINruY3-U-shot8_0/img17.jpg,Images/video-storytelling-videocamping_EytINruY3-U-shot8_0/img27.jpg,Images/video-storytelling-videocamping_EytINruY3-U-shot8_0/img36.jpg,Images/video-storytelling-videocamping_EytINruY3-U-shot8_0/img40.jpg,Images/video-storytelling-videocamping_EytINruY3-U-shot8_0/img47.jpg,Images/video-storytelling-videocamping_EytINruY3-U-shot8_0/img68.jpg,610,15,0,2022-06-15_22h24.04.723,annotation,2021.2.3,Win32,39.61494276,,
,,,,,,,,,,,,,,,,,0.194010417,-0.0703125,1,0,0,image_8,0,44,44,21,1,594,The person with the gun is still on top of a grey platform.  The gun is aimed to the left at the very edge of the grey platform the person is standing on. ,H,0,3,MSR-VTT-videoTestVideo_video7780-shot0_1,Images/MSR-VTT-videoTestVideo_video7780-shot0_1/img16.jpg,Images/MSR-VTT-videoTestVideo_video7780-shot0_1/img18.jpg,Images/MSR-VTT-videoTestVideo_video7780-shot0_1/img22.jpg,Images/MSR-VTT-videoTestVideo_video7780-shot0_1/img23.jpg,Images/MSR-VTT-videoTestVideo_video7780-shot0_1/img26.jpg,Images/MSR-VTT-videoTestVideo_video7780-shot0_1/img30.jpg,Images/MSR-VTT-videoTestVideo_video7780-shot0_1/img36.jpg,Images/MSR-VTT-videoTestVideo_video7780-shot0_1/img39.jpg,Images/MSR-VTT-videoTestVideo_video7780-shot0_1/img41.jpg,Images/MSR-VTT-videoTestVideo_video7780-shot0_1/img43.jpg,1444,15,0,2022-06-15_22h24.04.723,annotation,2021.2.3,Win32,39.61494276,,
,,,,,,,,,,,,,,,,,0.5078125,0.182291667,1,0,0,image_4,0,45,45,39,1,1918,A man sitting on top of a bike in a room.,M,0,8,MSR-VTT-videoTestVideo_video8717-shot0_0,Images/MSR-VTT-videoTestVideo_video8717-shot0_0/img0.jpg,Images/MSR-VTT-videoTestVideo_video8717-shot0_0/img1.jpg,Images/MSR-VTT-videoTestVideo_video8717-shot0_0/img3.jpg,Images/MSR-VTT-videoTestVideo_video8717-shot0_0/img4.jpg,Images/MSR-VTT-videoTestVideo_video8717-shot0_0/img5.jpg,Images/MSR-VTT-videoTestVideo_video8717-shot0_0/img6.jpg,Images/MSR-VTT-videoTestVideo_video8717-shot0_0/img8.jpg,Images/MSR-VTT-videoTestVideo_video8717-shot0_0/img9.jpg,Images/MSR-VTT-videoTestVideo_video8717-shot0_0/img12.jpg,Images/MSR-VTT-videoTestVideo_video8717-shot0_0/img17.jpg,1559,15,0,2022-06-15_22h24.04.723,annotation,2021.2.3,Win32,39.61494276,,
,,,,,,,,,,,,,,,,,-0.283854167,-0.100260417,1,0,0,image_6,0,46,46,3,1,306,The man in the white shirt has just completed his turn and is looking out the window.  You can see his left arm but can't see any of his right arm.  ,H,0,8,video-storytelling-videobirthday_fwpYnUDbusw-shot66_5,Images/video-storytelling-videobirthday_fwpYnUDbusw-shot66_5/img253.jpg,Images/video-storytelling-videobirthday_fwpYnUDbusw-shot66_5/img261.jpg,Images/video-storytelling-videobirthday_fwpYnUDbusw-shot66_5/img268.jpg,Images/video-storytelling-videobirthday_fwpYnUDbusw-shot66_5/img277.jpg,Images/video-storytelling-videobirthday_fwpYnUDbusw-shot66_5/img289.jpg,Images/video-storytelling-videobirthday_fwpYnUDbusw-shot66_5/img294.jpg,Images/video-storytelling-videobirthday_fwpYnUDbusw-shot66_5/img299.jpg,Images/video-storytelling-videobirthday_fwpYnUDbusw-shot66_5/img317.jpg,Images/video-storytelling-videobirthday_fwpYnUDbusw-shot66_5/img336.jpg,Images/video-storytelling-videobirthday_fwpYnUDbusw-shot66_5/img347.jpg,415,15,0,2022-06-15_22h24.04.723,annotation,2021.2.3,Win32,39.61494276,,
,,,,,,,,,,,,,,,,,0.291666667,0.125,1,0,0,image_3,0,47,47,27,1,639,"the peeler is just beginning to peel the cucumber, no white flesh has yet been exposed.",H,1,0,YouCook-video0034-shot14_1,Images/YouCook-video0034-shot14_1/img121.jpg,Images/YouCook-video0034-shot14_1/img133.jpg,Images/YouCook-video0034-shot14_1/img152.jpg,Images/YouCook-video0034-shot14_1/img164.jpg,Images/YouCook-video0034-shot14_1/img178.jpg,Images/YouCook-video0034-shot14_1/img188.jpg,Images/YouCook-video0034-shot14_1/img193.jpg,Images/YouCook-video0034-shot14_1/img196.jpg,Images/YouCook-video0034-shot14_1/img197.jpg,Images/YouCook-video0034-shot14_1/img202.jpg,917,15,0,2022-06-15_22h24.04.723,annotation,2021.2.3,Win32,39.61494276,,
,,,,,,,,,,,,,,,,,0.451822917,0.123697917,1,0,0,image_4,0,48,48,43,1,1265,A young man with a cell phone in his hand.,M,1,0,video-storytelling-videocamping_EytINruY3-U-shot43_1,Images/video-storytelling-videocamping_EytINruY3-U-shot43_1/img109.jpg,Images/video-storytelling-videocamping_EytINruY3-U-shot43_1/img119.jpg,Images/video-storytelling-videocamping_EytINruY3-U-shot43_1/img132.jpg,Images/video-storytelling-videocamping_EytINruY3-U-shot43_1/img169.jpg,Images/video-storytelling-videocamping_EytINruY3-U-shot43_1/img250.jpg,Images/video-storytelling-videocamping_EytINruY3-U-shot43_1/img301.jpg,Images/video-storytelling-videocamping_EytINruY3-U-shot43_1/img309.jpg,Images/video-storytelling-videocamping_EytINruY3-U-shot43_1/img312.jpg,Images/video-storytelling-videocamping_EytINruY3-U-shot43_1/img314.jpg,Images/video-storytelling-videocamping_EytINruY3-U-shot43_1/img326.jpg,817,15,0,2022-06-15_22h24.04.723,annotation,2021.2.3,Win32,39.61494276,,
,,,,,,,,,,,,,,,,,-0.481770833,0.111979167,1,0,0,image_0,0,49,49,50,1,1877,A person holding a piece of pizza on top of a plate.,M,0,9,YouCook-video0082-shot3_0,Images/YouCook-video0082-shot3_0/img0.jpg,Images/YouCook-video0082-shot3_0/img16.jpg,Images/YouCook-video0082-shot3_0/img21.jpg,Images/YouCook-video0082-shot3_0/img39.jpg,Images/YouCook-video0082-shot3_0/img61.jpg,Images/YouCook-video0082-shot3_0/img67.jpg,Images/YouCook-video0082-shot3_0/img80.jpg,Images/YouCook-video0082-shot3_0/img86.jpg,Images/YouCook-video0082-shot3_0/img90.jpg,Images/YouCook-video0082-shot3_0/img115.jpg,783,15,0,2022-06-15_22h24.04.723,annotation,2021.2.3,Win32,39.61494276,,
,,,,,,,,,,,,,,,,,-0.40234375,0.098958333,1,0,0,image_0,0,50,50,6,1,1621,a close up of a person holding a hot dog.,M,0,1,MSR-VTT-videoTestVideo_video7321-shot1_4,Images/MSR-VTT-videoTestVideo_video7321-shot1_4/img348.jpg,Images/MSR-VTT-videoTestVideo_video7321-shot1_4/img383.jpg,Images/MSR-VTT-videoTestVideo_video7321-shot1_4/img387.jpg,Images/MSR-VTT-videoTestVideo_video7321-shot1_4/img405.jpg,Images/MSR-VTT-videoTestVideo_video7321-shot1_4/img409.jpg,Images/MSR-VTT-videoTestVideo_video7321-shot1_4/img418.jpg,Images/MSR-VTT-videoTestVideo_video7321-shot1_4/img426.jpg,Images/MSR-VTT-videoTestVideo_video7321-shot1_4/img446.jpg,Images/MSR-VTT-videoTestVideo_video7321-shot1_4/img451.jpg,Images/MSR-VTT-videoTestVideo_video7321-shot1_4/img458.jpg,175,15,0,2022-06-15_22h24.04.723,annotation,2021.2.3,Win32,39.61494276,,
,,,,,,,,,,,,,,,,,0.19140625,0.114583333,1,0,0,image_3,0,51,51,51,1,496,Half of the blurry woman on the couch is visible.,H,0,7,video-storytelling-videochristmas_5RR_sRzKODA-shot30_11,Images/video-storytelling-videochristmas_5RR_sRzKODA-shot30_11/img528.jpg,Images/video-storytelling-videochristmas_5RR_sRzKODA-shot30_11/img529.jpg,Images/video-storytelling-videochristmas_5RR_sRzKODA-shot30_11/img531.jpg,Images/video-storytelling-videochristmas_5RR_sRzKODA-shot30_11/img532.jpg,Images/video-storytelling-videochristmas_5RR_sRzKODA-shot30_11/img533.jpg,Images/video-storytelling-videochristmas_5RR_sRzKODA-shot30_11/img534.jpg,Images/video-storytelling-videochristmas_5RR_sRzKODA-shot30_11/img536.jpg,Images/video-storytelling-videochristmas_5RR_sRzKODA-shot30_11/img538.jpg,Images/video-storytelling-videochristmas_5RR_sRzKODA-shot30_11/img540.jpg,Images/video-storytelling-videochristmas_5RR_sRzKODA-shot30_11/img544.jpg,603,15,0,2022-06-15_22h24.04.723,annotation,2021.2.3,Win32,39.61494276,,
,,,,,,,,,,,,,,,,,-0.555989583,-0.1328125,1,0,0,image_5,0,52,52,31,1,1061,A young girl holding a kite in her hand.,M,0,0,MSR-VTT-videoTestVideo_video7170-shot3_0,Images/MSR-VTT-videoTestVideo_video7170-shot3_0/img0.jpg,Images/MSR-VTT-videoTestVideo_video7170-shot3_0/img6.jpg,Images/MSR-VTT-videoTestVideo_video7170-shot3_0/img12.jpg,Images/MSR-VTT-videoTestVideo_video7170-shot3_0/img15.jpg,Images/MSR-VTT-videoTestVideo_video7170-shot3_0/img20.jpg,Images/MSR-VTT-videoTestVideo_video7170-shot3_0/img27.jpg,Images/MSR-VTT-videoTestVideo_video7170-shot3_0/img43.jpg,Images/MSR-VTT-videoTestVideo_video7170-shot3_0/img52.jpg,Images/MSR-VTT-videoTestVideo_video7170-shot3_0/img56.jpg,Images/MSR-VTT-videoTestVideo_video7170-shot3_0/img64.jpg,640,15,0,2022-06-15_22h24.04.723,annotation,2021.2.3,Win32,39.61494276,,
,,,,,,,,,,,,,,,,,0.481770833,0.1171875,1,0,0,image_4,0,53,53,46,1,504,The person in the front has just blocked most of the person's face who is on the left.  You can only see that person's sideburns. ,H,0,3,MSR-VTT-videoTestVideo_video8318-shot0_1,Images/MSR-VTT-videoTestVideo_video8318-shot0_1/img24.jpg,Images/MSR-VTT-videoTestVideo_video8318-shot0_1/img26.jpg,Images/MSR-VTT-videoTestVideo_video8318-shot0_1/img28.jpg,Images/MSR-VTT-videoTestVideo_video8318-shot0_1/img31.jpg,Images/MSR-VTT-videoTestVideo_video8318-shot0_1/img36.jpg,Images/MSR-VTT-videoTestVideo_video8318-shot0_1/img39.jpg,Images/MSR-VTT-videoTestVideo_video8318-shot0_1/img43.jpg,Images/MSR-VTT-videoTestVideo_video8318-shot0_1/img50.jpg,Images/MSR-VTT-videoTestVideo_video8318-shot0_1/img53.jpg,Images/MSR-VTT-videoTestVideo_video8318-shot0_1/img57.jpg,1323,15,0,2022-06-15_22h24.04.723,annotation,2021.2.3,Win32,39.61494276,,
,,,,,,,,,,,,,,,,,-0.470052083,-0.16015625,1,0,0,image_5,0,54,54,42,1,253,"Most of the yellow glove can be seen on the left side, while the glove on the right side can't be seen at all. ",H,0,7,video-storytelling-videobirthday__amwPjAcoC8-shot51_2,Images/video-storytelling-videobirthday__amwPjAcoC8-shot51_2/img44.jpg,Images/video-storytelling-videobirthday__amwPjAcoC8-shot51_2/img47.jpg,Images/video-storytelling-videobirthday__amwPjAcoC8-shot51_2/img53.jpg,Images/video-storytelling-videobirthday__amwPjAcoC8-shot51_2/img56.jpg,Images/video-storytelling-videobirthday__amwPjAcoC8-shot51_2/img58.jpg,Images/video-storytelling-videobirthday__amwPjAcoC8-shot51_2/img62.jpg,Images/video-storytelling-videobirthday__amwPjAcoC8-shot51_2/img64.jpg,Images/video-storytelling-videobirthday__amwPjAcoC8-shot51_2/img70.jpg,Images/video-storytelling-videobirthday__amwPjAcoC8-shot51_2/img73.jpg,Images/video-storytelling-videobirthday__amwPjAcoC8-shot51_2/img75.jpg,606,15,0,2022-06-15_22h24.04.723,annotation,2021.2.3,Win32,39.61494276,,
,,,,,,,,,,,,,,,,,-0.2578125,-0.131510417,1,0,0,image_6,0,55,55,10,1,1380,A person is holding a dog's arm up in the air.,M,0,8,MSR-VTT-videoTestVideo_video9415-shot1_9,Images/MSR-VTT-videoTestVideo_video9415-shot1_9/img286.jpg,Images/MSR-VTT-videoTestVideo_video9415-shot1_9/img293.jpg,Images/MSR-VTT-videoTestVideo_video9415-shot1_9/img294.jpg,Images/MSR-VTT-videoTestVideo_video9415-shot1_9/img298.jpg,Images/MSR-VTT-videoTestVideo_video9415-shot1_9/img306.jpg,Images/MSR-VTT-videoTestVideo_video9415-shot1_9/img310.jpg,Images/MSR-VTT-videoTestVideo_video9415-shot1_9/img315.jpg,Images/MSR-VTT-videoTestVideo_video9415-shot1_9/img321.jpg,Images/MSR-VTT-videoTestVideo_video9415-shot1_9/img328.jpg,Images/MSR-VTT-videoTestVideo_video9415-shot1_9/img333.jpg,215,15,0,2022-06-15_22h24.04.723,annotation,2021.2.3,Win32,39.61494276,,
,,,,,,,,,,,,,,,,,0.2265625,0.18359375,1,0,0,image_3,0,56,56,47,1,217,The girl's eyes are obscured but at least one toe on her right foot can be seen,H,0,6,video-storytelling-videochristmas_5RR_sRzKODA-shot28_0,Images/video-storytelling-videochristmas_5RR_sRzKODA-shot28_0/img0.jpg,Images/video-storytelling-videochristmas_5RR_sRzKODA-shot28_0/img3.jpg,Images/video-storytelling-videochristmas_5RR_sRzKODA-shot28_0/img7.jpg,Images/video-storytelling-videochristmas_5RR_sRzKODA-shot28_0/img11.jpg,Images/video-storytelling-videochristmas_5RR_sRzKODA-shot28_0/img14.jpg,Images/video-storytelling-videochristmas_5RR_sRzKODA-shot28_0/img23.jpg,Images/video-storytelling-videochristmas_5RR_sRzKODA-shot28_0/img30.jpg,Images/video-storytelling-videochristmas_5RR_sRzKODA-shot28_0/img36.jpg,Images/video-storytelling-videochristmas_5RR_sRzKODA-shot28_0/img50.jpg,Images/video-storytelling-videochristmas_5RR_sRzKODA-shot28_0/img54.jpg,402,15,0,2022-06-15_22h24.04.723,annotation,2021.2.3,Win32,39.61494276,,
,,,,,,,,,,,,,,,,,0.471354167,0.1953125,1,0,0,image_4,0,57,57,4,1,59,The top bread is put onto the sandwich.,H,0,9,YouCook-video0024-shot5_0,Images/YouCook-video0024-shot5_0/img19.jpg,Images/YouCook-video0024-shot5_0/img56.jpg,Images/YouCook-video0024-shot5_0/img114.jpg,Images/YouCook-video0024-shot5_0/img168.jpg,Images/YouCook-video0024-shot5_0/img174.jpg,Images/YouCook-video0024-shot5_0/img187.jpg,Images/YouCook-video0024-shot5_0/img276.jpg,Images/YouCook-video0024-shot5_0/img285.jpg,Images/YouCook-video0024-shot5_0/img312.jpg,Images/YouCook-video0024-shot5_0/img327.jpg,1823,15,0,2022-06-15_22h24.04.723,annotation,2021.2.3,Win32,39.61494276,,
,,,,,,,,,,,,,,,,,-0.2578125,-0.108072917,1,0,0,image_6,0,58,58,32,1,249,There is some slight image overlay.  A woman is mostly seen licking her finger and another image is very faintly coming in. ,H,0,8,MSR-VTT-videoTestVideo_video9782-shot1_1,Images/MSR-VTT-videoTestVideo_video9782-shot1_1/img208.jpg,Images/MSR-VTT-videoTestVideo_video9782-shot1_1/img268.jpg,Images/MSR-VTT-videoTestVideo_video9782-shot1_1/img304.jpg,Images/MSR-VTT-videoTestVideo_video9782-shot1_1/img345.jpg,Images/MSR-VTT-videoTestVideo_video9782-shot1_1/img350.jpg,Images/MSR-VTT-videoTestVideo_video9782-shot1_1/img351.jpg,Images/MSR-VTT-videoTestVideo_video9782-shot1_1/img356.jpg,Images/MSR-VTT-videoTestVideo_video9782-shot1_1/img363.jpg,Images/MSR-VTT-videoTestVideo_video9782-shot1_1/img494.jpg,Images/MSR-VTT-videoTestVideo_video9782-shot1_1/img499.jpg,986,15,0,2022-06-15_22h24.04.723,annotation,2021.2.3,Win32,39.61494276,,
,,,,,,,,,,,,,,,,,0.450520833,-0.106770833,1,0,0,image_9,0,59,59,0,1,1055,A group of people walking around a room.,M,0,8,MSR-VTT-videoTestVideo_video7041-shot1_1,Images/MSR-VTT-videoTestVideo_video7041-shot1_1/img59.jpg,Images/MSR-VTT-videoTestVideo_video7041-shot1_1/img62.jpg,Images/MSR-VTT-videoTestVideo_video7041-shot1_1/img72.jpg,Images/MSR-VTT-videoTestVideo_video7041-shot1_1/img74.jpg,Images/MSR-VTT-videoTestVideo_video7041-shot1_1/img77.jpg,Images/MSR-VTT-videoTestVideo_video7041-shot1_1/img84.jpg,Images/MSR-VTT-videoTestVideo_video7041-shot1_1/img92.jpg,Images/MSR-VTT-videoTestVideo_video7041-shot1_1/img97.jpg,Images/MSR-VTT-videoTestVideo_video7041-shot1_1/img99.jpg,Images/MSR-VTT-videoTestVideo_video7041-shot1_1/img108.jpg,1596,15,0,2022-06-15_22h24.04.723,annotation,2021.2.3,Win32,39.61494276,,
,,,,,,,,,,,,,,,,,0.537760417,-0.108072917,1,0,0,image_9,0,60,60,8,1,1755,A couple of people laying on top of a basketball court.,M,0,5,MSR-VTT-videoTestVideo_video7286-shot1_0,Images/MSR-VTT-videoTestVideo_video7286-shot1_0/img0.jpg,Images/MSR-VTT-videoTestVideo_video7286-shot1_0/img6.jpg,Images/MSR-VTT-videoTestVideo_video7286-shot1_0/img12.jpg,Images/MSR-VTT-videoTestVideo_video7286-shot1_0/img40.jpg,Images/MSR-VTT-videoTestVideo_video7286-shot1_0/img75.jpg,Images/MSR-VTT-videoTestVideo_video7286-shot1_0/img81.jpg,Images/MSR-VTT-videoTestVideo_video7286-shot1_0/img85.jpg,Images/MSR-VTT-videoTestVideo_video7286-shot1_0/img92.jpg,Images/MSR-VTT-videoTestVideo_video7286-shot1_0/img102.jpg,Images/MSR-VTT-videoTestVideo_video7286-shot1_0/img105.jpg,1306,15,0,2022-06-15_22h24.04.723,annotation,2021.2.3,Win32,39.61494276,,
,,,,,,,,,,,,,,,,,-0.313802083,-0.141927083,1,0,0,image_6,0,61,61,45,1,1232,A woman holding a bouquet of flowers on a sidewalk.,M,0,5,MSR-VTT-videoTestVideo_video7827-shot1_0,Images/MSR-VTT-videoTestVideo_video7827-shot1_0/img0.jpg,Images/MSR-VTT-videoTestVideo_video7827-shot1_0/img3.jpg,Images/MSR-VTT-videoTestVideo_video7827-shot1_0/img6.jpg,Images/MSR-VTT-videoTestVideo_video7827-shot1_0/img11.jpg,Images/MSR-VTT-videoTestVideo_video7827-shot1_0/img15.jpg,Images/MSR-VTT-videoTestVideo_video7827-shot1_0/img23.jpg,Images/MSR-VTT-videoTestVideo_video7827-shot1_0/img24.jpg,Images/MSR-VTT-videoTestVideo_video7827-shot1_0/img25.jpg,Images/MSR-VTT-videoTestVideo_video7827-shot1_0/img32.jpg,Images/MSR-VTT-videoTestVideo_video7827-shot1_0/img40.jpg,1892,15,0,2022-06-15_22h24.04.723,annotation,2021.2.3,Win32,39.61494276,,
,,,,,,,,,,,,,,,,,-0.018229167,0.149739583,1,0,0,image_2,0,62,62,61,1,3,A grey elephant with golden leaves on it. ,H,,2,open-images-1745_0ed62fe71809b2f5,Checks/check4/open-images-2609_3f72daeb23764ecfimg6.jpg,Checks/check4/open-images-1928_60679e2899870e08img1.jpg,Checks/check4/open-images-1745_0ed62fe71809b2f5img2.jpg,Checks/check4/open-images-1811_9ae6351c7f7565edimg0.jpg,Checks/check4/open-images-1721_6f04da11945ea492img3.jpg,Checks/check4/open-images-1907_5f9be3e4ea5e22c7img2.jpg,Checks/check4/open-images-580_0ddffb9c25141999img1.jpg,Checks/check4/open-images-2924_0645dcbcf998fed9img3.jpg,Checks/check4/open-images-869_856ecbcb5faf76e3img8.jpg,Checks/check4/open-images-250_02039517e63a91fbimg1.jpg,,,1,2022-06-15_22h24.04.723,annotation,2021.2.3,Win32,39.61494276,,
,,,,,,,,,,,,,,,,,,,,,,,,,,,,,,,,,,,,,,,,,,,,,,,2022-06-15_22h24.04.723,annotation,2021.2.3,Win32,39.61494276,space,41.1866
