mturk,key_resp_2.keys,key_resp_2.rt,key_resp_3.keys,key_resp_3.rt,mouse_2.x,mouse_2.y,mouse_2.leftButton,mouse_2.midButton,mouse_2.rightButton,mouse_2.clicked_name,key_resp_5.keys,key_resp_5.rt,key_resp.keys,key_resp.rt,key_resp_6.keys,key_resp_6.rt,mouse.x,mouse.y,mouse.leftButton,mouse.midButton,mouse.rightButton,mouse.time,mouse.clicked_name,trials.thisRepN,trials.thisTrialN,trials.thisN,trials.thisIndex,trials.ran,N,caption,class_caption,model_guessed,target_idx,image_set,img1,img2,img3,img4,img5,img6,img7,img8,img9,img10,Q_id,block,is_check,date,expName,psychopyVersion,OS,frameRate,key_resp_7.keys,key_resp_7.rt
3909734,space,30.39,space,324.371,0.235677083,0.108072917,1,0,0,ex4,space,9.916,space,9.983,space,1.258,0.182291667,-0.20703125,1,0,0,23.727,image_8,0,0,0,3,1,306,The man in the white shirt has just completed his turn and is looking out the window.  You can see his left arm but can't see any of his right arm.  ,H,0,8,video-storytelling-videobirthday_fwpYnUDbusw-shot66_5,Images/video-storytelling-videobirthday_fwpYnUDbusw-shot66_5/img253.jpg,Images/video-storytelling-videobirthday_fwpYnUDbusw-shot66_5/img261.jpg,Images/video-storytelling-videobirthday_fwpYnUDbusw-shot66_5/img268.jpg,Images/video-storytelling-videobirthday_fwpYnUDbusw-shot66_5/img277.jpg,Images/video-storytelling-videobirthday_fwpYnUDbusw-shot66_5/img289.jpg,Images/video-storytelling-videobirthday_fwpYnUDbusw-shot66_5/img294.jpg,Images/video-storytelling-videobirthday_fwpYnUDbusw-shot66_5/img299.jpg,Images/video-storytelling-videobirthday_fwpYnUDbusw-shot66_5/img317.jpg,Images/video-storytelling-videobirthday_fwpYnUDbusw-shot66_5/img336.jpg,Images/video-storytelling-videobirthday_fwpYnUDbusw-shot66_5/img347.jpg,415,15,0,2022-06-17_11h33.56.685,annotation,2021.2.3,Win32,20.00080003,,
,,,,,,,,,,,,,,,,,0.010416667,-0.108072917,1,0,0,75.431,image_7,0,1,1,36,1,51,The right exhaust can't be seen for the first time in the image.  You can start to see a brick object on the upper left corner of the image. ,H,0,7,MSR-VTT-videoTestVideo_video9975-shot1_0,Images/MSR-VTT-videoTestVideo_video9975-shot1_0/img0.jpg,Images/MSR-VTT-videoTestVideo_video9975-shot1_0/img5.jpg,Images/MSR-VTT-videoTestVideo_video9975-shot1_0/img16.jpg,Images/MSR-VTT-videoTestVideo_video9975-shot1_0/img25.jpg,Images/MSR-VTT-videoTestVideo_video9975-shot1_0/img50.jpg,Images/MSR-VTT-videoTestVideo_video9975-shot1_0/img63.jpg,Images/MSR-VTT-videoTestVideo_video9975-shot1_0/img67.jpg,Images/MSR-VTT-videoTestVideo_video9975-shot1_0/img80.jpg,Images/MSR-VTT-videoTestVideo_video9975-shot1_0/img85.jpg,Images/MSR-VTT-videoTestVideo_video9975-shot1_0/img89.jpg,826,15,0,2022-06-17_11h33.56.685,annotation,2021.2.3,Win32,20.00080003,,
,,,,,,,,,,,,,,,,,-0.475260417,0.162760417,1,0,0,30.472,image_0,0,2,2,30,1,1034,The red camera has appeared in the shot and is blocking a lot of the white text. No splashes of color are seen around the text. ,H,0,1,MSR-VTT-videoTestVideo_video8534-shot2_0,Images/MSR-VTT-videoTestVideo_video8534-shot2_0/img0.jpg,Images/MSR-VTT-videoTestVideo_video8534-shot2_0/img1.jpg,Images/MSR-VTT-videoTestVideo_video8534-shot2_0/img3.jpg,Images/MSR-VTT-videoTestVideo_video8534-shot2_0/img4.jpg,Images/MSR-VTT-videoTestVideo_video8534-shot2_0/img5.jpg,Images/MSR-VTT-videoTestVideo_video8534-shot2_0/img8.jpg,Images/MSR-VTT-videoTestVideo_video8534-shot2_0/img12.jpg,Images/MSR-VTT-videoTestVideo_video8534-shot2_0/img14.jpg,Images/MSR-VTT-videoTestVideo_video8534-shot2_0/img20.jpg,Images/MSR-VTT-videoTestVideo_video8534-shot2_0/img26.jpg,1180,15,0,2022-06-17_11h33.56.685,annotation,2021.2.3,Win32,20.00080003,,
,,,,,,,,,,,,,,,,,-0.438655908,-0.194191176,1,0,0,60.919,image_5,0,3,3,21,1,594,The person with the gun is still on top of a grey platform.  The gun is aimed to the left at the very edge of the grey platform the person is standing on. ,H,0,3,MSR-VTT-videoTestVideo_video7780-shot0_1,Images/MSR-VTT-videoTestVideo_video7780-shot0_1/img16.jpg,Images/MSR-VTT-videoTestVideo_video7780-shot0_1/img18.jpg,Images/MSR-VTT-videoTestVideo_video7780-shot0_1/img22.jpg,Images/MSR-VTT-videoTestVideo_video7780-shot0_1/img23.jpg,Images/MSR-VTT-videoTestVideo_video7780-shot0_1/img26.jpg,Images/MSR-VTT-videoTestVideo_video7780-shot0_1/img30.jpg,Images/MSR-VTT-videoTestVideo_video7780-shot0_1/img36.jpg,Images/MSR-VTT-videoTestVideo_video7780-shot0_1/img39.jpg,Images/MSR-VTT-videoTestVideo_video7780-shot0_1/img41.jpg,Images/MSR-VTT-videoTestVideo_video7780-shot0_1/img43.jpg,1444,15,0,2022-06-17_11h33.56.685,annotation,2021.2.3,Win32,20.00080003,,
,,,,,,,,,,,,,,,,,-0.488148031,-0.126465194,1,0,0,11.333,image_5,0,4,4,44,1,145,The girl's face is blurry with her hair covering the right side. Her face is looking up.,H,0,5,MSR-VTT-videoTestVideo_video8058-shot1_0,Images/MSR-VTT-videoTestVideo_video8058-shot1_0/img0.jpg,Images/MSR-VTT-videoTestVideo_video8058-shot1_0/img18.jpg,Images/MSR-VTT-videoTestVideo_video8058-shot1_0/img33.jpg,Images/MSR-VTT-videoTestVideo_video8058-shot1_0/img37.jpg,Images/MSR-VTT-videoTestVideo_video8058-shot1_0/img73.jpg,Images/MSR-VTT-videoTestVideo_video8058-shot1_0/img103.jpg,Images/MSR-VTT-videoTestVideo_video8058-shot1_0/img153.jpg,Images/MSR-VTT-videoTestVideo_video8058-shot1_0/img188.jpg,Images/MSR-VTT-videoTestVideo_video8058-shot1_0/img191.jpg,Images/MSR-VTT-videoTestVideo_video8058-shot1_0/img195.jpg,604,15,0,2022-06-17_11h33.56.685,annotation,2021.2.3,Win32,20.00080003,,
,,,,,,,,,,,,,,,,,-0.429538978,-0.157723282,1,0,0,23.902,image_5,0,5,5,55,1,302,There is a bridge visible on the right side of the image. The bottom of the bride's dress is cut off by the bottom edge of the image. ,H,1,5,video-storytelling-videowedding_46xhFCXBMJs-shot89_5,Images/video-storytelling-videowedding_46xhFCXBMJs-shot89_5/img373.jpg,Images/video-storytelling-videowedding_46xhFCXBMJs-shot89_5/img378.jpg,Images/video-storytelling-videowedding_46xhFCXBMJs-shot89_5/img380.jpg,Images/video-storytelling-videowedding_46xhFCXBMJs-shot89_5/img385.jpg,Images/video-storytelling-videowedding_46xhFCXBMJs-shot89_5/img387.jpg,Images/video-storytelling-videowedding_46xhFCXBMJs-shot89_5/img392.jpg,Images/video-storytelling-videowedding_46xhFCXBMJs-shot89_5/img399.jpg,Images/video-storytelling-videowedding_46xhFCXBMJs-shot89_5/img402.jpg,Images/video-storytelling-videowedding_46xhFCXBMJs-shot89_5/img406.jpg,Images/video-storytelling-videowedding_46xhFCXBMJs-shot89_5/img409.jpg,1682,15,0,2022-06-17_11h33.56.685,annotation,2021.2.3,Win32,20.00080003,,
,,,,,,,,,,,,,,,,,0.474342237,-0.136884585,1,0,0,22.672,image_9,0,6,6,32,1,249,There is some slight image overlay.  A woman is mostly seen licking her finger and another image is very faintly coming in. ,H,0,8,MSR-VTT-videoTestVideo_video9782-shot1_1,Images/MSR-VTT-videoTestVideo_video9782-shot1_1/img208.jpg,Images/MSR-VTT-videoTestVideo_video9782-shot1_1/img268.jpg,Images/MSR-VTT-videoTestVideo_video9782-shot1_1/img304.jpg,Images/MSR-VTT-videoTestVideo_video9782-shot1_1/img345.jpg,Images/MSR-VTT-videoTestVideo_video9782-shot1_1/img350.jpg,Images/MSR-VTT-videoTestVideo_video9782-shot1_1/img351.jpg,Images/MSR-VTT-videoTestVideo_video9782-shot1_1/img356.jpg,Images/MSR-VTT-videoTestVideo_video9782-shot1_1/img363.jpg,Images/MSR-VTT-videoTestVideo_video9782-shot1_1/img494.jpg,Images/MSR-VTT-videoTestVideo_video9782-shot1_1/img499.jpg,986,15,0,2022-06-17_11h33.56.685,annotation,2021.2.3,Win32,20.00080003,,
,,,,,,,,,,,,,,,,,0.057567083,0.136624137,1,0,0,32.367,image_2,0,7,7,29,1,387,Two men are facing each other. Man on left has a confused look. Both of their mouths are closed. Man on left looks like they have their eyes closed or barely opened.,H,0,4,MSR-VTT-videoTestVideo_video9579-shot1_0,Images/MSR-VTT-videoTestVideo_video9579-shot1_0/img0.jpg,Images/MSR-VTT-videoTestVideo_video9579-shot1_0/img7.jpg,Images/MSR-VTT-videoTestVideo_video9579-shot1_0/img29.jpg,Images/MSR-VTT-videoTestVideo_video9579-shot1_0/img36.jpg,Images/MSR-VTT-videoTestVideo_video9579-shot1_0/img51.jpg,Images/MSR-VTT-videoTestVideo_video9579-shot1_0/img84.jpg,Images/MSR-VTT-videoTestVideo_video9579-shot1_0/img98.jpg,Images/MSR-VTT-videoTestVideo_video9579-shot1_0/img125.jpg,Images/MSR-VTT-videoTestVideo_video9579-shot1_0/img151.jpg,Images/MSR-VTT-videoTestVideo_video9579-shot1_0/img197.jpg,2022,15,0,2022-06-17_11h33.56.685,annotation,2021.2.3,Win32,20.00080003,,
,,,,,,,,,,,,,,,,,0.259442523,-0.147303977,1,0,0,37.433,image_8,0,8,8,15,1,2040,a couple of hot dogs on a plate.,M,0,3,video-storytelling-videocamping_dBXYM3dQTSo-shot69_4,Images/video-storytelling-videocamping_dBXYM3dQTSo-shot69_4/img214.jpg,Images/video-storytelling-videocamping_dBXYM3dQTSo-shot69_4/img221.jpg,Images/video-storytelling-videocamping_dBXYM3dQTSo-shot69_4/img223.jpg,Images/video-storytelling-videocamping_dBXYM3dQTSo-shot69_4/img226.jpg,Images/video-storytelling-videocamping_dBXYM3dQTSo-shot69_4/img235.jpg,Images/video-storytelling-videocamping_dBXYM3dQTSo-shot69_4/img237.jpg,Images/video-storytelling-videocamping_dBXYM3dQTSo-shot69_4/img243.jpg,Images/video-storytelling-videocamping_dBXYM3dQTSo-shot69_4/img246.jpg,Images/video-storytelling-videocamping_dBXYM3dQTSo-shot69_4/img249.jpg,Images/video-storytelling-videocamping_dBXYM3dQTSo-shot69_4/img255.jpg,229,15,0,2022-06-17_11h33.56.685,annotation,2021.2.3,Win32,20.00080003,,
,,,,,,,,,,,,,,,,,-0.464704366,0.15485804,1,0,0,22.551,image_0,0,9,9,19,1,1780,A woman holding a tray of carrots on a table.,M,0,7,YouCook-video0016-shot3_1,Images/YouCook-video0016-shot3_1/img166.jpg,Images/YouCook-video0016-shot3_1/img183.jpg,Images/YouCook-video0016-shot3_1/img208.jpg,Images/YouCook-video0016-shot3_1/img215.jpg,Images/YouCook-video0016-shot3_1/img324.jpg,Images/YouCook-video0016-shot3_1/img327.jpg,Images/YouCook-video0016-shot3_1/img333.jpg,Images/YouCook-video0016-shot3_1/img349.jpg,Images/YouCook-video0016-shot3_1/img373.jpg,Images/YouCook-video0016-shot3_1/img388.jpg,970,15,0,2022-06-17_11h33.56.685,annotation,2021.2.3,Win32,20.00080003,,
,,,,,,,,,,,,,,,,,0.022401651,-0.15381607,1,0,0,43.361,image_7,0,10,10,42,1,253,"Most of the yellow glove can be seen on the left side, while the glove on the right side can't be seen at all. ",H,0,7,video-storytelling-videobirthday__amwPjAcoC8-shot51_2,Images/video-storytelling-videobirthday__amwPjAcoC8-shot51_2/img44.jpg,Images/video-storytelling-videobirthday__amwPjAcoC8-shot51_2/img47.jpg,Images/video-storytelling-videobirthday__amwPjAcoC8-shot51_2/img53.jpg,Images/video-storytelling-videobirthday__amwPjAcoC8-shot51_2/img56.jpg,Images/video-storytelling-videobirthday__amwPjAcoC8-shot51_2/img58.jpg,Images/video-storytelling-videobirthday__amwPjAcoC8-shot51_2/img62.jpg,Images/video-storytelling-videobirthday__amwPjAcoC8-shot51_2/img64.jpg,Images/video-storytelling-videobirthday__amwPjAcoC8-shot51_2/img70.jpg,Images/video-storytelling-videobirthday__amwPjAcoC8-shot51_2/img73.jpg,Images/video-storytelling-videobirthday__amwPjAcoC8-shot51_2/img75.jpg,606,15,0,2022-06-17_11h33.56.685,annotation,2021.2.3,Win32,20.00080003,,
,,,,,,,,,,,,,,,,,-0.219848939,-0.159025744,1,0,0,51.545,image_6,0,11,11,8,1,1755,A couple of people laying on top of a basketball court.,M,0,5,MSR-VTT-videoTestVideo_video7286-shot1_0,Images/MSR-VTT-videoTestVideo_video7286-shot1_0/img0.jpg,Images/MSR-VTT-videoTestVideo_video7286-shot1_0/img6.jpg,Images/MSR-VTT-videoTestVideo_video7286-shot1_0/img12.jpg,Images/MSR-VTT-videoTestVideo_video7286-shot1_0/img40.jpg,Images/MSR-VTT-videoTestVideo_video7286-shot1_0/img75.jpg,Images/MSR-VTT-videoTestVideo_video7286-shot1_0/img81.jpg,Images/MSR-VTT-videoTestVideo_video7286-shot1_0/img85.jpg,Images/MSR-VTT-videoTestVideo_video7286-shot1_0/img92.jpg,Images/MSR-VTT-videoTestVideo_video7286-shot1_0/img102.jpg,Images/MSR-VTT-videoTestVideo_video7286-shot1_0/img105.jpg,1306,15,0,2022-06-17_11h33.56.685,annotation,2021.2.3,Win32,20.00080003,,
,,,,,,,,,,,,,,,,,0.526439153,0.098853868,1,0,0,45.785,image_4,0,12,12,45,1,1232,A woman holding a bouquet of flowers on a sidewalk.,M,0,5,MSR-VTT-videoTestVideo_video7827-shot1_0,Images/MSR-VTT-videoTestVideo_video7827-shot1_0/img0.jpg,Images/MSR-VTT-videoTestVideo_video7827-shot1_0/img3.jpg,Images/MSR-VTT-videoTestVideo_video7827-shot1_0/img6.jpg,Images/MSR-VTT-videoTestVideo_video7827-shot1_0/img11.jpg,Images/MSR-VTT-videoTestVideo_video7827-shot1_0/img15.jpg,Images/MSR-VTT-videoTestVideo_video7827-shot1_0/img23.jpg,Images/MSR-VTT-videoTestVideo_video7827-shot1_0/img24.jpg,Images/MSR-VTT-videoTestVideo_video7827-shot1_0/img25.jpg,Images/MSR-VTT-videoTestVideo_video7827-shot1_0/img32.jpg,Images/MSR-VTT-videoTestVideo_video7827-shot1_0/img40.jpg,1892,15,0,2022-06-17_11h33.56.685,annotation,2021.2.3,Win32,20.00080003,,
,,,,,,,,,,,,,,,,,0.555092448,-0.168142718,1,0,0,55.764,image_9,0,13,13,9,1,960,The man with the umbrella is looking up while the woman on the right's shoulder is aligned with the edge of the image.,H,0,6,video-storytelling-videowedding_de8dLXvgV-I-shot5_6,Images/video-storytelling-videowedding_de8dLXvgV-I-shot5_6/img248.jpg,Images/video-storytelling-videowedding_de8dLXvgV-I-shot5_6/img250.jpg,Images/video-storytelling-videowedding_de8dLXvgV-I-shot5_6/img253.jpg,Images/video-storytelling-videowedding_de8dLXvgV-I-shot5_6/img254.jpg,Images/video-storytelling-videowedding_de8dLXvgV-I-shot5_6/img256.jpg,Images/video-storytelling-videowedding_de8dLXvgV-I-shot5_6/img260.jpg,Images/video-storytelling-videowedding_de8dLXvgV-I-shot5_6/img265.jpg,Images/video-storytelling-videowedding_de8dLXvgV-I-shot5_6/img267.jpg,Images/video-storytelling-videowedding_de8dLXvgV-I-shot5_6/img269.jpg,Images/video-storytelling-videowedding_de8dLXvgV-I-shot5_6/img273.jpg,1732,15,0,2022-06-17_11h33.56.685,annotation,2021.2.3,Win32,20.00080003,,
,,,,,,,,,,,,,,,,,-0.502474635,0.098853868,1,0,0,15.974,image_0,0,14,14,37,1,1168,A man standing next to a table full of food.,M,0,4,MSR-VTT-videoTestVideo_video7999-shot1_0,Images/MSR-VTT-videoTestVideo_video7999-shot1_0/img0.jpg,Images/MSR-VTT-videoTestVideo_video7999-shot1_0/img5.jpg,Images/MSR-VTT-videoTestVideo_video7999-shot1_0/img8.jpg,Images/MSR-VTT-videoTestVideo_video7999-shot1_0/img14.jpg,Images/MSR-VTT-videoTestVideo_video7999-shot1_0/img21.jpg,Images/MSR-VTT-videoTestVideo_video7999-shot1_0/img25.jpg,Images/MSR-VTT-videoTestVideo_video7999-shot1_0/img30.jpg,Images/MSR-VTT-videoTestVideo_video7999-shot1_0/img33.jpg,Images/MSR-VTT-videoTestVideo_video7999-shot1_0/img36.jpg,Images/MSR-VTT-videoTestVideo_video7999-shot1_0/img43.jpg,1829,15,0,2022-06-17_11h33.56.685,annotation,2021.2.3,Win32,20.00080003,,
,,,,,,,,,,,,,,,,,0.496483396,0.145741088,1,0,0,45.347,image_4,0,15,15,28,1,402,The woman on the back of the bike has just moved her hands down to the sides of the man in front. ,H,0,3,MSR-VTT-videoTestVideo_video8513-shot4_0,Images/MSR-VTT-videoTestVideo_video8513-shot4_0/img0.jpg,Images/MSR-VTT-videoTestVideo_video8513-shot4_0/img10.jpg,Images/MSR-VTT-videoTestVideo_video8513-shot4_0/img58.jpg,Images/MSR-VTT-videoTestVideo_video8513-shot4_0/img73.jpg,Images/MSR-VTT-videoTestVideo_video8513-shot4_0/img97.jpg,Images/MSR-VTT-videoTestVideo_video8513-shot4_0/img114.jpg,Images/MSR-VTT-videoTestVideo_video8513-shot4_0/img115.jpg,Images/MSR-VTT-videoTestVideo_video8513-shot4_0/img119.jpg,Images/MSR-VTT-videoTestVideo_video8513-shot4_0/img123.jpg,Images/MSR-VTT-videoTestVideo_video8513-shot4_0/img131.jpg,1620,15,0,2022-06-17_11h33.56.685,annotation,2021.2.3,Win32,20.00080003,,
,,,,,,,,,,,,,,,,,0.273769171,-0.148606396,1,0,0,22.45,image_8,0,16,16,25,1,1713,A man in a suit and tie stands in front of a group of people.,M,0,5,MSR-VTT-videoTestVideo_video9608-shot8_0,Images/MSR-VTT-videoTestVideo_video9608-shot8_0/img0.jpg,Images/MSR-VTT-videoTestVideo_video9608-shot8_0/img10.jpg,Images/MSR-VTT-videoTestVideo_video9608-shot8_0/img24.jpg,Images/MSR-VTT-videoTestVideo_video9608-shot8_0/img28.jpg,Images/MSR-VTT-videoTestVideo_video9608-shot8_0/img34.jpg,Images/MSR-VTT-videoTestVideo_video9608-shot8_0/img39.jpg,Images/MSR-VTT-videoTestVideo_video9608-shot8_0/img46.jpg,Images/MSR-VTT-videoTestVideo_video9608-shot8_0/img51.jpg,Images/MSR-VTT-videoTestVideo_video9608-shot8_0/img74.jpg,Images/MSR-VTT-videoTestVideo_video9608-shot8_0/img83.jpg,533,15,0,2022-06-17_11h33.56.685,annotation,2021.2.3,Win32,20.00080003,,
,,,,,,,,,,,,,,,,,-0.51549882,-0.192888757,1,0,0,27.847,image_5,0,17,17,11,1,489,The hand is under the collar area of the orange jacket. It's not close to his chin.,H,0,5,video-storytelling-videobirthday__amwPjAcoC8-shot78_0,Images/video-storytelling-videobirthday__amwPjAcoC8-shot78_0/img0.jpg,Images/video-storytelling-videobirthday__amwPjAcoC8-shot78_0/img1.jpg,Images/video-storytelling-videobirthday__amwPjAcoC8-shot78_0/img2.jpg,Images/video-storytelling-videobirthday__amwPjAcoC8-shot78_0/img4.jpg,Images/video-storytelling-videobirthday__amwPjAcoC8-shot78_0/img6.jpg,Images/video-storytelling-videobirthday__amwPjAcoC8-shot78_0/img7.jpg,Images/video-storytelling-videobirthday__amwPjAcoC8-shot78_0/img9.jpg,Images/video-storytelling-videobirthday__amwPjAcoC8-shot78_0/img12.jpg,Images/video-storytelling-videobirthday__amwPjAcoC8-shot78_0/img13.jpg,Images/video-storytelling-videobirthday__amwPjAcoC8-shot78_0/img15.jpg,1698,15,0,2022-06-17_11h33.56.685,annotation,2021.2.3,Win32,20.00080003,,
,,,,,,,,,,,,,,,,,-0.214639265,0.09755145,1,0,0,12.994,image_1,0,18,18,49,1,70,The person's hand on the right is covering up most of his face but you can still see a bit of his sunglasses. ,H,0,1,MSR-VTT-videoTestVideo_video7465-shot7_0,Images/MSR-VTT-videoTestVideo_video7465-shot7_0/img0.jpg,Images/MSR-VTT-videoTestVideo_video7465-shot7_0/img1.jpg,Images/MSR-VTT-videoTestVideo_video7465-shot7_0/img2.jpg,Images/MSR-VTT-videoTestVideo_video7465-shot7_0/img3.jpg,Images/MSR-VTT-videoTestVideo_video7465-shot7_0/img7.jpg,Images/MSR-VTT-videoTestVideo_video7465-shot7_0/img11.jpg,Images/MSR-VTT-videoTestVideo_video7465-shot7_0/img16.jpg,Images/MSR-VTT-videoTestVideo_video7465-shot7_0/img21.jpg,Images/MSR-VTT-videoTestVideo_video7465-shot7_0/img26.jpg,Images/MSR-VTT-videoTestVideo_video7465-shot7_0/img30.jpg,201,15,0,2022-06-17_11h33.56.685,annotation,2021.2.3,Win32,20.00080003,,
,,,,,,,,,,,,,,,,,-0.010158943,0.196535564,1,0,0,13.783,image_2,0,19,19,50,1,1877,A person holding a piece of pizza on top of a plate.,M,0,9,YouCook-video0082-shot3_0,Images/YouCook-video0082-shot3_0/img0.jpg,Images/YouCook-video0082-shot3_0/img16.jpg,Images/YouCook-video0082-shot3_0/img21.jpg,Images/YouCook-video0082-shot3_0/img39.jpg,Images/YouCook-video0082-shot3_0/img61.jpg,Images/YouCook-video0082-shot3_0/img67.jpg,Images/YouCook-video0082-shot3_0/img80.jpg,Images/YouCook-video0082-shot3_0/img86.jpg,Images/YouCook-video0082-shot3_0/img90.jpg,Images/YouCook-video0082-shot3_0/img115.jpg,783,15,0,2022-06-17_11h33.56.685,annotation,2021.2.3,Win32,20.00080003,,
,,,,,,,,,,,,,,,,,0.476947074,-0.196796013,1,0,0,22.632,image_9,0,20,20,17,1,1076,A man standing in front of a fence.,M,1,7,MSR-VTT-videoTestVideo_video7174-shot1_1,Images/MSR-VTT-videoTestVideo_video7174-shot1_1/img71.jpg,Images/MSR-VTT-videoTestVideo_video7174-shot1_1/img82.jpg,Images/MSR-VTT-videoTestVideo_video7174-shot1_1/img86.jpg,Images/MSR-VTT-videoTestVideo_video7174-shot1_1/img98.jpg,Images/MSR-VTT-videoTestVideo_video7174-shot1_1/img107.jpg,Images/MSR-VTT-videoTestVideo_video7174-shot1_1/img116.jpg,Images/MSR-VTT-videoTestVideo_video7174-shot1_1/img128.jpg,Images/MSR-VTT-videoTestVideo_video7174-shot1_1/img135.jpg,Images/MSR-VTT-videoTestVideo_video7174-shot1_1/img149.jpg,Images/MSR-VTT-videoTestVideo_video7174-shot1_1/img158.jpg,334,15,0,2022-06-17_11h33.56.685,annotation,2021.2.3,Win32,20.00080003,,
,,,,,,,,,,,,,,,,,-0.475123758,-0.143396634,1,0,0,16.989,image_5,0,21,21,48,1,29,The ball has just left the hands of the person with the red jersey.  ,H,0,5,MSR-VTT-videoTestVideo_video8013-shot1_0,Images/MSR-VTT-videoTestVideo_video8013-shot1_0/img0.jpg,Images/MSR-VTT-videoTestVideo_video8013-shot1_0/img1.jpg,Images/MSR-VTT-videoTestVideo_video8013-shot1_0/img10.jpg,Images/MSR-VTT-videoTestVideo_video8013-shot1_0/img12.jpg,Images/MSR-VTT-videoTestVideo_video8013-shot1_0/img18.jpg,Images/MSR-VTT-videoTestVideo_video8013-shot1_0/img20.jpg,Images/MSR-VTT-videoTestVideo_video8013-shot1_0/img24.jpg,Images/MSR-VTT-videoTestVideo_video8013-shot1_0/img25.jpg,Images/MSR-VTT-videoTestVideo_video8013-shot1_0/img30.jpg,Images/MSR-VTT-videoTestVideo_video8013-shot1_0/img31.jpg,1076,15,0,2022-06-17_11h33.56.685,annotation,2021.2.3,Win32,20.00080003,,
,,,,,,,,,,,,,,,,,-0.261526463,0.143136251,1,0,0,6.498,image_1,0,22,22,62,1,4,A penguin holding a piece of paper with text on it. ,H,,1,open-images-2521_074d6af730ed17a6,Checks/check5/open-images-509_4d8bd994cb8c6eaeimg0.jpg,Checks/check5/open-images-2521_074d6af730ed17a6img1.jpg,Checks/check5/open-images-1365_a00a5fde334ae45aimg4.jpg,Checks/check5/open-images-1602_44092afdeab39e73img6.jpg,Checks/check5/open-images-1032_059f3cdfb85ee0ceimg3.jpg,Checks/check5/open-images-727_25b77fff36adba66img2.jpg,Checks/check5/open-images-2208_0fb92b9978d98575img2.jpg,Checks/check5/open-images-1305_05769e6abb16fdc8img9.jpg,Checks/check5/open-images-2676_052dbf7b4899430bimg1.jpg,Checks/check5/open-images-2569_1e81d79bb796a2dbimg7.jpg,,,1,2022-06-17_11h33.56.685,annotation,2021.2.3,Win32,20.00080003,,
,,,,,,,,,,,,,,,,,-0.222453776,0.140531392,1,0,0,17.521,image_1,0,23,23,43,1,1265,A young man with a cell phone in his hand.,M,1,0,video-storytelling-videocamping_EytINruY3-U-shot43_1,Images/video-storytelling-videocamping_EytINruY3-U-shot43_1/img109.jpg,Images/video-storytelling-videocamping_EytINruY3-U-shot43_1/img119.jpg,Images/video-storytelling-videocamping_EytINruY3-U-shot43_1/img132.jpg,Images/video-storytelling-videocamping_EytINruY3-U-shot43_1/img169.jpg,Images/video-storytelling-videocamping_EytINruY3-U-shot43_1/img250.jpg,Images/video-storytelling-videocamping_EytINruY3-U-shot43_1/img301.jpg,Images/video-storytelling-videocamping_EytINruY3-U-shot43_1/img309.jpg,Images/video-storytelling-videocamping_EytINruY3-U-shot43_1/img312.jpg,Images/video-storytelling-videocamping_EytINruY3-U-shot43_1/img314.jpg,Images/video-storytelling-videocamping_EytINruY3-U-shot43_1/img326.jpg,817,15,0,2022-06-17_11h33.56.685,annotation,2021.2.3,Win32,20.00080003,,
,,,,,,,,,,,,,,,,,0.255535137,-0.168142718,1,0,0,11.21,image_8,0,24,24,52,1,1519,A person is cooking a cake on a plate.,M,1,4,YouCook-video0008-shot2_1,Images/YouCook-video0008-shot2_1/img340.jpg,Images/YouCook-video0008-shot2_1/img343.jpg,Images/YouCook-video0008-shot2_1/img347.jpg,Images/YouCook-video0008-shot2_1/img350.jpg,Images/YouCook-video0008-shot2_1/img352.jpg,Images/YouCook-video0008-shot2_1/img377.jpg,Images/YouCook-video0008-shot2_1/img387.jpg,Images/YouCook-video0008-shot2_1/img403.jpg,Images/YouCook-video0008-shot2_1/img405.jpg,Images/YouCook-video0008-shot2_1/img422.jpg,1709,15,0,2022-06-17_11h33.56.685,annotation,2021.2.3,Win32,20.00080003,,
,,,,,,,,,,,,,,,,,-0.20682471,-0.182469365,1,0,0,20.835,image_6,0,25,25,2,1,1941,Two women standing next to each other in a room.,M,1,3,MSR-VTT-videoTestVideo_video9969-shot1_0,Images/MSR-VTT-videoTestVideo_video9969-shot1_0/img0.jpg,Images/MSR-VTT-videoTestVideo_video9969-shot1_0/img1.jpg,Images/MSR-VTT-videoTestVideo_video9969-shot1_0/img2.jpg,Images/MSR-VTT-videoTestVideo_video9969-shot1_0/img4.jpg,Images/MSR-VTT-videoTestVideo_video9969-shot1_0/img5.jpg,Images/MSR-VTT-videoTestVideo_video9969-shot1_0/img18.jpg,Images/MSR-VTT-videoTestVideo_video9969-shot1_0/img41.jpg,Images/MSR-VTT-videoTestVideo_video9969-shot1_0/img60.jpg,Images/MSR-VTT-videoTestVideo_video9969-shot1_0/img108.jpg,Images/MSR-VTT-videoTestVideo_video9969-shot1_0/img146.jpg,1467,15,0,2022-06-17_11h33.56.685,annotation,2021.2.3,Win32,20.00080003,,
,,,,,,,,,,,,,,,,,-0.006251644,0.111878097,1,0,0,11.038,image_2,0,26,26,23,1,1759,A person cutting a piece of cake on top of a plate.,M,0,1,YouCook-video0017-shot2_2,Images/YouCook-video0017-shot2_2/img130.jpg,Images/YouCook-video0017-shot2_2/img134.jpg,Images/YouCook-video0017-shot2_2/img139.jpg,Images/YouCook-video0017-shot2_2/img145.jpg,Images/YouCook-video0017-shot2_2/img146.jpg,Images/YouCook-video0017-shot2_2/img150.jpg,Images/YouCook-video0017-shot2_2/img151.jpg,Images/YouCook-video0017-shot2_2/img152.jpg,Images/YouCook-video0017-shot2_2/img155.jpg,Images/YouCook-video0017-shot2_2/img156.jpg,388,15,0,2022-06-17_11h33.56.685,annotation,2021.2.3,Win32,20.00080003,,
,,,,,,,,,,,,,,,,,-0.278457948,0.157462899,1,0,0,39.816,image_1,0,27,27,34,1,792,The bride is laying her hands on the grooms face. Her fingers are placed below his ear.,H,1,0,video-storytelling-videowedding_de8dLXvgV-I-shot139_0,Images/video-storytelling-videowedding_de8dLXvgV-I-shot139_0/img0.jpg,Images/video-storytelling-videowedding_de8dLXvgV-I-shot139_0/img19.jpg,Images/video-storytelling-videowedding_de8dLXvgV-I-shot139_0/img120.jpg,Images/video-storytelling-videowedding_de8dLXvgV-I-shot139_0/img144.jpg,Images/video-storytelling-videowedding_de8dLXvgV-I-shot139_0/img213.jpg,Images/video-storytelling-videowedding_de8dLXvgV-I-shot139_0/img226.jpg,Images/video-storytelling-videowedding_de8dLXvgV-I-shot139_0/img251.jpg,Images/video-storytelling-videowedding_de8dLXvgV-I-shot139_0/img272.jpg,Images/video-storytelling-videowedding_de8dLXvgV-I-shot139_0/img285.jpg,Images/video-storytelling-videowedding_de8dLXvgV-I-shot139_0/img300.jpg,1571,15,0,2022-06-17_11h33.56.685,annotation,2021.2.3,Win32,20.00080003,,
,,,,,,,,,,,,,,,,,-0.432143815,0.130112,1,0,0,14.914,image_0,0,28,28,14,1,921,"The image is mid-transition between images. The bride is looking at another female, who is looking off screen to the right and her mouth is slightly open.",H,0,1,video-storytelling-videowedding_Bp8t824h5NE-shot59_1,Images/video-storytelling-videowedding_Bp8t824h5NE-shot59_1/img2110.jpg,Images/video-storytelling-videowedding_Bp8t824h5NE-shot59_1/img2195.jpg,Images/video-storytelling-videowedding_Bp8t824h5NE-shot59_1/img2202.jpg,Images/video-storytelling-videowedding_Bp8t824h5NE-shot59_1/img2207.jpg,Images/video-storytelling-videowedding_Bp8t824h5NE-shot59_1/img2214.jpg,Images/video-storytelling-videowedding_Bp8t824h5NE-shot59_1/img2222.jpg,Images/video-storytelling-videowedding_Bp8t824h5NE-shot59_1/img2258.jpg,Images/video-storytelling-videowedding_Bp8t824h5NE-shot59_1/img2270.jpg,Images/video-storytelling-videowedding_Bp8t824h5NE-shot59_1/img2285.jpg,Images/video-storytelling-videowedding_Bp8t824h5NE-shot59_1/img2365.jpg,965,15,0,2022-06-17_11h33.56.685,annotation,2021.2.3,Win32,20.00080003,,
,,,,,,,,,,,,,,,,,0.514717343,-0.173352392,1,0,0,5.739,image_9,0,29,29,7,1,1163,A bowl filled with chocolate cake on top of a plate.,M,0,7,YouCook-video0008-shot2_0,Images/YouCook-video0008-shot2_0/img0.jpg,Images/YouCook-video0008-shot2_0/img49.jpg,Images/YouCook-video0008-shot2_0/img56.jpg,Images/YouCook-video0008-shot2_0/img71.jpg,Images/YouCook-video0008-shot2_0/img78.jpg,Images/YouCook-video0008-shot2_0/img215.jpg,Images/YouCook-video0008-shot2_0/img223.jpg,Images/YouCook-video0008-shot2_0/img259.jpg,Images/YouCook-video0008-shot2_0/img293.jpg,Images/YouCook-video0008-shot2_0/img339.jpg,1016,15,0,2022-06-17_11h33.56.685,annotation,2021.2.3,Win32,20.00080003,,
,,,,,,,,,,,,,,,,,0.548580312,0.1340193,1,0,0,9.059,image_4,0,30,30,20,1,117,the hand is holding the yellow dog dish at a 45 degree angle obscuring the dog,H,0,3,MSR-VTT-videoTestVideo_video9580-shot1_0,Images/MSR-VTT-videoTestVideo_video9580-shot1_0/img1.jpg,Images/MSR-VTT-videoTestVideo_video9580-shot1_0/img10.jpg,Images/MSR-VTT-videoTestVideo_video9580-shot1_0/img32.jpg,Images/MSR-VTT-videoTestVideo_video9580-shot1_0/img71.jpg,Images/MSR-VTT-videoTestVideo_video9580-shot1_0/img73.jpg,Images/MSR-VTT-videoTestVideo_video9580-shot1_0/img78.jpg,Images/MSR-VTT-videoTestVideo_video9580-shot1_0/img101.jpg,Images/MSR-VTT-videoTestVideo_video9580-shot1_0/img105.jpg,Images/MSR-VTT-videoTestVideo_video9580-shot1_0/img111.jpg,Images/MSR-VTT-videoTestVideo_video9580-shot1_0/img115.jpg,1798,15,0,2022-06-17_11h33.56.685,annotation,2021.2.3,Win32,20.00080003,,
,,,,,,,,,,,,,,,,,-0.497264917,-0.159025744,1,0,0,12.812,image_5,0,31,31,59,1,1,The only picture of a hawk.  It is looking to the left.  You see lots of branches and darker blue sky. ,H,,5,open-images-958_686caac9c5b322e7,Checks/check2/open-images-2603_1b5152f01f0093e7img3.jpg,Checks/check2/open-images-1836_069810916ce5d675img8.jpg,Checks/check2/open-images-974_0748fdedc4bf8b7bimg2.jpg,Checks/check2/open-images-617_01fb725fb1aa7b04img6.jpg,Checks/check2/open-images-507_047769e1f977cd97img2.jpg,Checks/check2/open-images-958_686caac9c5b322e7img5.jpg,Checks/check2/open-images-1278_21851d9bf5dc05c9img7.jpg,Checks/check2/open-images-2424_05f04546e01499f2img0.jpg,Checks/check2/open-images-1529_1442b11a10a6aeadimg3.jpg,Checks/check2/open-images-514_2c523ddedc2561d4img1.jpg,,,1,2022-06-17_11h33.56.685,annotation,2021.2.3,Win32,20.00080003,,
,,,,,,,,,,,,,,,,,-0.49466008,-0.165537881,1,0,0,39.085,image_5,0,32,32,38,1,469,"The blue car is titled slightly down and to the left, and its left back tire is on the lane divider.",H,0,1,MSR-VTT-videoTestVideo_video7662-shot2_0,Images/MSR-VTT-videoTestVideo_video7662-shot2_0/img0.jpg,Images/MSR-VTT-videoTestVideo_video7662-shot2_0/img9.jpg,Images/MSR-VTT-videoTestVideo_video7662-shot2_0/img15.jpg,Images/MSR-VTT-videoTestVideo_video7662-shot2_0/img49.jpg,Images/MSR-VTT-videoTestVideo_video7662-shot2_0/img75.jpg,Images/MSR-VTT-videoTestVideo_video7662-shot2_0/img85.jpg,Images/MSR-VTT-videoTestVideo_video7662-shot2_0/img105.jpg,Images/MSR-VTT-videoTestVideo_video7662-shot2_0/img117.jpg,Images/MSR-VTT-videoTestVideo_video7662-shot2_0/img121.jpg,Images/MSR-VTT-videoTestVideo_video7662-shot2_0/img130.jpg,1883,15,0,2022-06-17_11h33.56.685,annotation,2021.2.3,Win32,20.00080003,,
,,,,,,,,,,,,,,,,,0.263349823,-0.179864528,1,0,0,17.099,image_8,0,33,33,5,1,1625,A person is using a computer to make a painting.,M,0,2,MSR-VTT-videoTestVideo_video9279-shot1_1,Images/MSR-VTT-videoTestVideo_video9279-shot1_1/img47.jpg,Images/MSR-VTT-videoTestVideo_video9279-shot1_1/img49.jpg,Images/MSR-VTT-videoTestVideo_video9279-shot1_1/img54.jpg,Images/MSR-VTT-videoTestVideo_video9279-shot1_1/img63.jpg,Images/MSR-VTT-videoTestVideo_video9279-shot1_1/img72.jpg,Images/MSR-VTT-videoTestVideo_video9279-shot1_1/img146.jpg,Images/MSR-VTT-videoTestVideo_video9279-shot1_1/img154.jpg,Images/MSR-VTT-videoTestVideo_video9279-shot1_1/img155.jpg,Images/MSR-VTT-videoTestVideo_video9279-shot1_1/img157.jpg,Images/MSR-VTT-videoTestVideo_video9279-shot1_1/img159.jpg,1097,15,0,2022-06-17_11h33.56.685,annotation,2021.2.3,Win32,20.00080003,,
,,,,,,,,,,,,,,,,,-0.443865626,0.160067736,1,0,0,10.035,image_0,0,34,34,27,1,639,"the peeler is just beginning to peel the cucumber, no white flesh has yet been exposed.",H,1,0,YouCook-video0034-shot14_1,Images/YouCook-video0034-shot14_1/img121.jpg,Images/YouCook-video0034-shot14_1/img133.jpg,Images/YouCook-video0034-shot14_1/img152.jpg,Images/YouCook-video0034-shot14_1/img164.jpg,Images/YouCook-video0034-shot14_1/img178.jpg,Images/YouCook-video0034-shot14_1/img188.jpg,Images/YouCook-video0034-shot14_1/img193.jpg,Images/YouCook-video0034-shot14_1/img196.jpg,Images/YouCook-video0034-shot14_1/img197.jpg,Images/YouCook-video0034-shot14_1/img202.jpg,917,15,0,2022-06-17_11h33.56.685,annotation,2021.2.3,Win32,20.00080003,,
,,,,,,,,,,,,,,,,,0.224277092,0.130112,1,0,0,49.939,image_3,0,35,35,13,1,463,Half of the head of the camera man's head is visible behind the man in blue on the field.,H,0,3,MSR-VTT-videoTestVideo_video9543-shot1_13,Images/MSR-VTT-videoTestVideo_video9543-shot1_13/img544.jpg,Images/MSR-VTT-videoTestVideo_video9543-shot1_13/img547.jpg,Images/MSR-VTT-videoTestVideo_video9543-shot1_13/img550.jpg,Images/MSR-VTT-videoTestVideo_video9543-shot1_13/img552.jpg,Images/MSR-VTT-videoTestVideo_video9543-shot1_13/img556.jpg,Images/MSR-VTT-videoTestVideo_video9543-shot1_13/img561.jpg,Images/MSR-VTT-videoTestVideo_video9543-shot1_13/img565.jpg,Images/MSR-VTT-videoTestVideo_video9543-shot1_13/img571.jpg,Images/MSR-VTT-videoTestVideo_video9543-shot1_13/img573.jpg,Images/MSR-VTT-videoTestVideo_video9543-shot1_13/img576.jpg,1805,15,0,2022-06-17_11h33.56.685,annotation,2021.2.3,Win32,20.00080003,,
,,,,,,,,,,,,,,,,,0.010679841,-0.205912986,1,0,0,40.581,image_7,0,36,36,22,1,867,A bit of the front of the purple bag can be seen in front of the model's body.  Her right arm is starting to swing behind her body. Her right fingers are blurry. ,H,0,6,MSR-VTT-videoTestVideo_video7522-shot5_1,Images/MSR-VTT-videoTestVideo_video7522-shot5_1/img23.jpg,Images/MSR-VTT-videoTestVideo_video7522-shot5_1/img25.jpg,Images/MSR-VTT-videoTestVideo_video7522-shot5_1/img28.jpg,Images/MSR-VTT-videoTestVideo_video7522-shot5_1/img30.jpg,Images/MSR-VTT-videoTestVideo_video7522-shot5_1/img34.jpg,Images/MSR-VTT-videoTestVideo_video7522-shot5_1/img40.jpg,Images/MSR-VTT-videoTestVideo_video7522-shot5_1/img42.jpg,Images/MSR-VTT-videoTestVideo_video7522-shot5_1/img45.jpg,Images/MSR-VTT-videoTestVideo_video7522-shot5_1/img48.jpg,Images/MSR-VTT-videoTestVideo_video7522-shot5_1/img53.jpg,1795,15,0,2022-06-17_11h33.56.685,annotation,2021.2.3,Win32,20.00080003,,
,,,,,,,,,,,,,,,,,0.523834316,-0.162933044,1,0,0,9.551,image_9,0,37,37,10,1,1380,A person is holding a dog's arm up in the air.,M,0,8,MSR-VTT-videoTestVideo_video9415-shot1_9,Images/MSR-VTT-videoTestVideo_video9415-shot1_9/img286.jpg,Images/MSR-VTT-videoTestVideo_video9415-shot1_9/img293.jpg,Images/MSR-VTT-videoTestVideo_video9415-shot1_9/img294.jpg,Images/MSR-VTT-videoTestVideo_video9415-shot1_9/img298.jpg,Images/MSR-VTT-videoTestVideo_video9415-shot1_9/img306.jpg,Images/MSR-VTT-videoTestVideo_video9415-shot1_9/img310.jpg,Images/MSR-VTT-videoTestVideo_video9415-shot1_9/img315.jpg,Images/MSR-VTT-videoTestVideo_video9415-shot1_9/img321.jpg,Images/MSR-VTT-videoTestVideo_video9415-shot1_9/img328.jpg,Images/MSR-VTT-videoTestVideo_video9415-shot1_9/img333.jpg,215,15,0,2022-06-17_11h33.56.685,annotation,2021.2.3,Win32,20.00080003,,
,,,,,,,,,,,,,,,,,0.235998902,-0.173352392,1,0,0,27.702,image_8,0,38,38,56,1,564,Scissors are cutting the middle of a leg. A transparent image of a pan is faintly seen especially to the left.,H,1,5,YouCook-video0023-shot1_0,Images/YouCook-video0023-shot1_0/img0.jpg,Images/YouCook-video0023-shot1_0/img8.jpg,Images/YouCook-video0023-shot1_0/img12.jpg,Images/YouCook-video0023-shot1_0/img18.jpg,Images/YouCook-video0023-shot1_0/img20.jpg,Images/YouCook-video0023-shot1_0/img24.jpg,Images/YouCook-video0023-shot1_0/img41.jpg,Images/YouCook-video0023-shot1_0/img147.jpg,Images/YouCook-video0023-shot1_0/img194.jpg,Images/YouCook-video0023-shot1_0/img226.jpg,1321,15,0,2022-06-17_11h33.56.685,annotation,2021.2.3,Win32,20.00080003,,
,,,,,,,,,,,,,,,,,-0.493357661,0.104063586,1,0,0,23.25,image_0,0,39,39,40,1,34,The headlight on the blue car to the left is not yet visible. ,H,0,0,MSR-VTT-videoTestVideo_video7692-shot2_3,Images/MSR-VTT-videoTestVideo_video7692-shot2_3/img507.jpg,Images/MSR-VTT-videoTestVideo_video7692-shot2_3/img508.jpg,Images/MSR-VTT-videoTestVideo_video7692-shot2_3/img515.jpg,Images/MSR-VTT-videoTestVideo_video7692-shot2_3/img522.jpg,Images/MSR-VTT-videoTestVideo_video7692-shot2_3/img527.jpg,Images/MSR-VTT-videoTestVideo_video7692-shot2_3/img531.jpg,Images/MSR-VTT-videoTestVideo_video7692-shot2_3/img539.jpg,Images/MSR-VTT-videoTestVideo_video7692-shot2_3/img603.jpg,Images/MSR-VTT-videoTestVideo_video7692-shot2_3/img632.jpg,Images/MSR-VTT-videoTestVideo_video7692-shot2_3/img639.jpg,122,15,0,2022-06-17_11h33.56.685,annotation,2021.2.3,Win32,20.00080003,,
,,,,,,,,,,,,,,,,,0.476947074,-0.159025744,1,0,0,44.148,image_9,0,40,40,1,1,512,There is a black arrow with writing on it in the bottom left. The pointer finger of the right hand is lifted off the paper.,H,0,8,MSR-VTT-videoTestVideo_video7161-shot0_0,Images/MSR-VTT-videoTestVideo_video7161-shot0_0/img0.jpg,Images/MSR-VTT-videoTestVideo_video7161-shot0_0/img19.jpg,Images/MSR-VTT-videoTestVideo_video7161-shot0_0/img21.jpg,Images/MSR-VTT-videoTestVideo_video7161-shot0_0/img26.jpg,Images/MSR-VTT-videoTestVideo_video7161-shot0_0/img34.jpg,Images/MSR-VTT-videoTestVideo_video7161-shot0_0/img40.jpg,Images/MSR-VTT-videoTestVideo_video7161-shot0_0/img48.jpg,Images/MSR-VTT-videoTestVideo_video7161-shot0_0/img51.jpg,Images/MSR-VTT-videoTestVideo_video7161-shot0_0/img62.jpg,Images/MSR-VTT-videoTestVideo_video7161-shot0_0/img70.jpg,569,15,0,2022-06-17_11h33.56.685,annotation,2021.2.3,Win32,20.00080003,,
,,,,,,,,,,,,,,,,,0.516019717,-0.138187004,1,0,0,11.783,image_9,0,41,41,60,1,2,Green type writer with a red tape. ,H,,9,open-images-531_0dd4eb59d465a8be,Checks/check3/open-images-503_1ccd6fa641154ebbimg7.jpg,Checks/check3/open-images-1852_00faf52058ad28b8img4.jpg,Checks/check3/open-images-386_1b2e28d6d994603eimg1.jpg,Checks/check3/open-images-471_1121e9f97c200ac0img8.jpg,Checks/check3/open-images-1886_3db71eaddb618934img8.jpg,Checks/check3/open-images-1696_20a4ebf0c0f76b05img6.jpg,Checks/check3/open-images-2447_128483a48e1552f4img6.jpg,Checks/check3/open-images-2994_9965cbf8aa20bda0img2.jpg,Checks/check3/open-images-1068_03d63613107970b3img6.jpg,Checks/check3/open-images-531_0dd4eb59d465a8beimg9.jpg,,,1,2022-06-17_11h33.56.685,annotation,2021.2.3,Win32,20.00080003,,
,,,,,,,,,,,,,,,,,-0.458192273,-0.140791841,1,0,0,30.749,image_5,0,42,42,18,1,251,The person away from the camera has completely disappeared.  All you can see is a portion of the rack on the floor,H,1,4,MSR-VTT-videoTestVideo_video8574-shot1_0,Images/MSR-VTT-videoTestVideo_video8574-shot1_0/img0.jpg,Images/MSR-VTT-videoTestVideo_video8574-shot1_0/img5.jpg,Images/MSR-VTT-videoTestVideo_video8574-shot1_0/img8.jpg,Images/MSR-VTT-videoTestVideo_video8574-shot1_0/img9.jpg,Images/MSR-VTT-videoTestVideo_video8574-shot1_0/img11.jpg,Images/MSR-VTT-videoTestVideo_video8574-shot1_0/img13.jpg,Images/MSR-VTT-videoTestVideo_video8574-shot1_0/img15.jpg,Images/MSR-VTT-videoTestVideo_video8574-shot1_0/img19.jpg,Images/MSR-VTT-videoTestVideo_video8574-shot1_0/img23.jpg,Images/MSR-VTT-videoTestVideo_video8574-shot1_0/img31.jpg,1167,15,0,2022-06-17_11h33.56.685,annotation,2021.2.3,Win32,20.00080003,,
,,,,,,,,,,,,,,,,,0.476947074,-0.135582167,1,0,0,19.757,image_9,0,43,43,31,1,1061,A young girl holding a kite in her hand.,M,0,0,MSR-VTT-videoTestVideo_video7170-shot3_0,Images/MSR-VTT-videoTestVideo_video7170-shot3_0/img0.jpg,Images/MSR-VTT-videoTestVideo_video7170-shot3_0/img6.jpg,Images/MSR-VTT-videoTestVideo_video7170-shot3_0/img12.jpg,Images/MSR-VTT-videoTestVideo_video7170-shot3_0/img15.jpg,Images/MSR-VTT-videoTestVideo_video7170-shot3_0/img20.jpg,Images/MSR-VTT-videoTestVideo_video7170-shot3_0/img27.jpg,Images/MSR-VTT-videoTestVideo_video7170-shot3_0/img43.jpg,Images/MSR-VTT-videoTestVideo_video7170-shot3_0/img52.jpg,Images/MSR-VTT-videoTestVideo_video7170-shot3_0/img56.jpg,Images/MSR-VTT-videoTestVideo_video7170-shot3_0/img64.jpg,640,15,0,2022-06-17_11h33.56.685,annotation,2021.2.3,Win32,20.00080003,,
,,,,,,,,,,,,,,,,,0.496483396,-0.147303977,1,0,0,16.317,image_9,0,44,44,24,1,57,The man is shooting a three pointer and his feet are still on the ground. ,H,0,3,MSR-VTT-videoTestVideo_video8715-shot0_0,Images/MSR-VTT-videoTestVideo_video8715-shot0_0/img0.jpg,Images/MSR-VTT-videoTestVideo_video8715-shot0_0/img7.jpg,Images/MSR-VTT-videoTestVideo_video8715-shot0_0/img15.jpg,Images/MSR-VTT-videoTestVideo_video8715-shot0_0/img19.jpg,Images/MSR-VTT-videoTestVideo_video8715-shot0_0/img28.jpg,Images/MSR-VTT-videoTestVideo_video8715-shot0_0/img33.jpg,Images/MSR-VTT-videoTestVideo_video8715-shot0_0/img35.jpg,Images/MSR-VTT-videoTestVideo_video8715-shot0_0/img39.jpg,Images/MSR-VTT-videoTestVideo_video8715-shot0_0/img47.jpg,Images/MSR-VTT-videoTestVideo_video8715-shot0_0/img50.jpg,1154,15,0,2022-06-17_11h33.56.685,annotation,2021.2.3,Win32,20.00080003,,
,,,,,,,,,,,,,,,,,0.008075004,0.197837983,1,0,0,25.153,image_2,0,45,45,61,1,3,A grey elephant with golden leaves on it. ,H,,2,open-images-1745_0ed62fe71809b2f5,Checks/check4/open-images-2609_3f72daeb23764ecfimg6.jpg,Checks/check4/open-images-1928_60679e2899870e08img1.jpg,Checks/check4/open-images-1745_0ed62fe71809b2f5img2.jpg,Checks/check4/open-images-1811_9ae6351c7f7565edimg0.jpg,Checks/check4/open-images-1721_6f04da11945ea492img3.jpg,Checks/check4/open-images-1907_5f9be3e4ea5e22c7img2.jpg,Checks/check4/open-images-580_0ddffb9c25141999img1.jpg,Checks/check4/open-images-2924_0645dcbcf998fed9img3.jpg,Checks/check4/open-images-869_856ecbcb5faf76e3img8.jpg,Checks/check4/open-images-250_02039517e63a91fbimg1.jpg,,,1,2022-06-17_11h33.56.685,annotation,2021.2.3,Win32,20.00080003,,
,,,,,,,,,,,,,,,,,0.292003118,-0.117348264,1,0,0,13.397,image_8,0,46,46,0,1,1055,A group of people walking around a room.,M,0,8,MSR-VTT-videoTestVideo_video7041-shot1_1,Images/MSR-VTT-videoTestVideo_video7041-shot1_1/img59.jpg,Images/MSR-VTT-videoTestVideo_video7041-shot1_1/img62.jpg,Images/MSR-VTT-videoTestVideo_video7041-shot1_1/img72.jpg,Images/MSR-VTT-videoTestVideo_video7041-shot1_1/img74.jpg,Images/MSR-VTT-videoTestVideo_video7041-shot1_1/img77.jpg,Images/MSR-VTT-videoTestVideo_video7041-shot1_1/img84.jpg,Images/MSR-VTT-videoTestVideo_video7041-shot1_1/img92.jpg,Images/MSR-VTT-videoTestVideo_video7041-shot1_1/img97.jpg,Images/MSR-VTT-videoTestVideo_video7041-shot1_1/img99.jpg,Images/MSR-VTT-videoTestVideo_video7041-shot1_1/img108.jpg,1596,15,0,2022-06-17_11h33.56.685,annotation,2021.2.3,Win32,20.00080003,,
,,,,,,,,,,,,,,,,,0.51732218,-0.143396634,1,0,0,5.389,image_9,0,47,47,54,1,1486,A woman sitting in a chair eating a sandwich.,M,0,4,MSR-VTT-videoTestVideo_video7533-shot1_8,Images/MSR-VTT-videoTestVideo_video7533-shot1_8/img687.jpg,Images/MSR-VTT-videoTestVideo_video7533-shot1_8/img689.jpg,Images/MSR-VTT-videoTestVideo_video7533-shot1_8/img692.jpg,Images/MSR-VTT-videoTestVideo_video7533-shot1_8/img697.jpg,Images/MSR-VTT-videoTestVideo_video7533-shot1_8/img709.jpg,Images/MSR-VTT-videoTestVideo_video7533-shot1_8/img714.jpg,Images/MSR-VTT-videoTestVideo_video7533-shot1_8/img721.jpg,Images/MSR-VTT-videoTestVideo_video7533-shot1_8/img734.jpg,Images/MSR-VTT-videoTestVideo_video7533-shot1_8/img738.jpg,Images/MSR-VTT-videoTestVideo_video7533-shot1_8/img756.jpg,1871,15,0,2022-06-17_11h33.56.685,annotation,2021.2.3,Win32,20.00080003,,
,,,,,,,,,,,,,,,,,-0.057046098,-0.140791841,1,0,0,7.347,image_7,0,48,48,51,1,496,Half of the blurry woman on the couch is visible.,H,0,7,video-storytelling-videochristmas_5RR_sRzKODA-shot30_11,Images/video-storytelling-videochristmas_5RR_sRzKODA-shot30_11/img528.jpg,Images/video-storytelling-videochristmas_5RR_sRzKODA-shot30_11/img529.jpg,Images/video-storytelling-videochristmas_5RR_sRzKODA-shot30_11/img531.jpg,Images/video-storytelling-videochristmas_5RR_sRzKODA-shot30_11/img532.jpg,Images/video-storytelling-videochristmas_5RR_sRzKODA-shot30_11/img533.jpg,Images/video-storytelling-videochristmas_5RR_sRzKODA-shot30_11/img534.jpg,Images/video-storytelling-videochristmas_5RR_sRzKODA-shot30_11/img536.jpg,Images/video-storytelling-videochristmas_5RR_sRzKODA-shot30_11/img538.jpg,Images/video-storytelling-videochristmas_5RR_sRzKODA-shot30_11/img540.jpg,Images/video-storytelling-videochristmas_5RR_sRzKODA-shot30_11/img544.jpg,603,15,0,2022-06-17_11h33.56.685,annotation,2021.2.3,Win32,20.00080003,,
,,,,,,,,,,,,,,,,,0.495181021,-0.192888757,1,0,0,4.826,image_9,0,49,49,4,1,59,The top bread is put onto the sandwich.,H,0,9,YouCook-video0024-shot5_0,Images/YouCook-video0024-shot5_0/img19.jpg,Images/YouCook-video0024-shot5_0/img56.jpg,Images/YouCook-video0024-shot5_0/img114.jpg,Images/YouCook-video0024-shot5_0/img168.jpg,Images/YouCook-video0024-shot5_0/img174.jpg,Images/YouCook-video0024-shot5_0/img187.jpg,Images/YouCook-video0024-shot5_0/img276.jpg,Images/YouCook-video0024-shot5_0/img285.jpg,Images/YouCook-video0024-shot5_0/img312.jpg,Images/YouCook-video0024-shot5_0/img327.jpg,1823,15,0,2022-06-17_11h33.56.685,annotation,2021.2.3,Win32,20.00080003,,
,,,,,,,,,,,,,,,,,0.302422466,-0.146001559,1,0,0,12.129,image_8,0,50,50,47,1,217,The girl's eyes are obscured but at least one toe on her right foot can be seen,H,0,6,video-storytelling-videochristmas_5RR_sRzKODA-shot28_0,Images/video-storytelling-videochristmas_5RR_sRzKODA-shot28_0/img0.jpg,Images/video-storytelling-videochristmas_5RR_sRzKODA-shot28_0/img3.jpg,Images/video-storytelling-videochristmas_5RR_sRzKODA-shot28_0/img7.jpg,Images/video-storytelling-videochristmas_5RR_sRzKODA-shot28_0/img11.jpg,Images/video-storytelling-videochristmas_5RR_sRzKODA-shot28_0/img14.jpg,Images/video-storytelling-videochristmas_5RR_sRzKODA-shot28_0/img23.jpg,Images/video-storytelling-videochristmas_5RR_sRzKODA-shot28_0/img30.jpg,Images/video-storytelling-videochristmas_5RR_sRzKODA-shot28_0/img36.jpg,Images/video-storytelling-videochristmas_5RR_sRzKODA-shot28_0/img50.jpg,Images/video-storytelling-videochristmas_5RR_sRzKODA-shot28_0/img54.jpg,402,15,0,2022-06-17_11h33.56.685,annotation,2021.2.3,Win32,20.00080003,,
,,,,,,,,,,,,,,,,,-0.008856481,0.145741088,1,0,0,8.757,image_2,0,51,51,53,1,264,The motorcycle helmet is completely off and you can first see the person's mouth. ,H,0,6,MSR-VTT-videoTestVideo_video8657-shot3_0,Images/MSR-VTT-videoTestVideo_video8657-shot3_0/img0.jpg,Images/MSR-VTT-videoTestVideo_video8657-shot3_0/img4.jpg,Images/MSR-VTT-videoTestVideo_video8657-shot3_0/img21.jpg,Images/MSR-VTT-videoTestVideo_video8657-shot3_0/img40.jpg,Images/MSR-VTT-videoTestVideo_video8657-shot3_0/img42.jpg,Images/MSR-VTT-videoTestVideo_video8657-shot3_0/img45.jpg,Images/MSR-VTT-videoTestVideo_video8657-shot3_0/img49.jpg,Images/MSR-VTT-videoTestVideo_video8657-shot3_0/img54.jpg,Images/MSR-VTT-videoTestVideo_video8657-shot3_0/img56.jpg,Images/MSR-VTT-videoTestVideo_video8657-shot3_0/img61.jpg,627,15,0,2022-06-17_11h33.56.685,annotation,2021.2.3,Win32,20.00080003,,
,,,,,,,,,,,,,,,,,0.268559497,0.145741088,1,0,0,28.469,image_3,0,52,52,12,1,1355,A woman in a red shirt and blue pants is holding a baseball bat.,M,0,2,MSR-VTT-videoTestVideo_video7041-shot0_3,Images/MSR-VTT-videoTestVideo_video7041-shot0_3/img59.jpg,Images/MSR-VTT-videoTestVideo_video7041-shot0_3/img60.jpg,Images/MSR-VTT-videoTestVideo_video7041-shot0_3/img63.jpg,Images/MSR-VTT-videoTestVideo_video7041-shot0_3/img66.jpg,Images/MSR-VTT-videoTestVideo_video7041-shot0_3/img68.jpg,Images/MSR-VTT-videoTestVideo_video7041-shot0_3/img72.jpg,Images/MSR-VTT-videoTestVideo_video7041-shot0_3/img75.jpg,Images/MSR-VTT-videoTestVideo_video7041-shot0_3/img78.jpg,Images/MSR-VTT-videoTestVideo_video7041-shot0_3/img83.jpg,Images/MSR-VTT-videoTestVideo_video7041-shot0_3/img84.jpg,97,15,0,2022-06-17_11h33.56.685,annotation,2021.2.3,Win32,20.00080003,,
,,,,,,,,,,,,,,,,,0.570721471,0.15616048,1,0,0,8.899,image_4,0,53,53,33,1,425,The man holds a spoon up in front of him and the tip of the spoon is not seen.,H,0,4,video-storytelling-videocamping_EytINruY3-U-shot60_0,Images/video-storytelling-videocamping_EytINruY3-U-shot60_0/img0.jpg,Images/video-storytelling-videocamping_EytINruY3-U-shot60_0/img36.jpg,Images/video-storytelling-videocamping_EytINruY3-U-shot60_0/img54.jpg,Images/video-storytelling-videocamping_EytINruY3-U-shot60_0/img130.jpg,Images/video-storytelling-videocamping_EytINruY3-U-shot60_0/img136.jpg,Images/video-storytelling-videocamping_EytINruY3-U-shot60_0/img275.jpg,Images/video-storytelling-videocamping_EytINruY3-U-shot60_0/img281.jpg,Images/video-storytelling-videocamping_EytINruY3-U-shot60_0/img319.jpg,Images/video-storytelling-videocamping_EytINruY3-U-shot60_0/img344.jpg,Images/video-storytelling-videocamping_EytINruY3-U-shot60_0/img355.jpg,1737,15,0,2022-06-17_11h33.56.685,annotation,2021.2.3,Win32,20.00080003,,
,,,,,,,,,,,,,,,,,0.027611325,0.175696802,1,0,0,18.253,image_2,0,54,54,57,1,1028,A hand has an index finger inside the bag and a middle finger outside the bag. The toothbrush is touching the ziplock part of the bag.,H,0,3,video-storytelling-videocamping_EytINruY3-U-shot42_0,Images/video-storytelling-videocamping_EytINruY3-U-shot42_0/img0.jpg,Images/video-storytelling-videocamping_EytINruY3-U-shot42_0/img82.jpg,Images/video-storytelling-videocamping_EytINruY3-U-shot42_0/img123.jpg,Images/video-storytelling-videocamping_EytINruY3-U-shot42_0/img129.jpg,Images/video-storytelling-videocamping_EytINruY3-U-shot42_0/img134.jpg,Images/video-storytelling-videocamping_EytINruY3-U-shot42_0/img165.jpg,Images/video-storytelling-videocamping_EytINruY3-U-shot42_0/img181.jpg,Images/video-storytelling-videocamping_EytINruY3-U-shot42_0/img194.jpg,Images/video-storytelling-videocamping_EytINruY3-U-shot42_0/img211.jpg,Images/video-storytelling-videocamping_EytINruY3-U-shot42_0/img221.jpg,2058,15,0,2022-06-17_11h33.56.685,annotation,2021.2.3,Win32,20.00080003,,
,,,,,,,,,,,,,,,,,0.207345607,-0.160328206,1,0,0,17.265,image_8,0,55,55,16,1,1494,A plate topped with a donut on a plate.,M,0,8,MSR-VTT-videoTestVideo_video7973-shot3_0,Images/MSR-VTT-videoTestVideo_video7973-shot3_0/img0.jpg,Images/MSR-VTT-videoTestVideo_video7973-shot3_0/img16.jpg,Images/MSR-VTT-videoTestVideo_video7973-shot3_0/img17.jpg,Images/MSR-VTT-videoTestVideo_video7973-shot3_0/img20.jpg,Images/MSR-VTT-videoTestVideo_video7973-shot3_0/img23.jpg,Images/MSR-VTT-videoTestVideo_video7973-shot3_0/img27.jpg,Images/MSR-VTT-videoTestVideo_video7973-shot3_0/img35.jpg,Images/MSR-VTT-videoTestVideo_video7973-shot3_0/img42.jpg,Images/MSR-VTT-videoTestVideo_video7973-shot3_0/img49.jpg,Images/MSR-VTT-videoTestVideo_video7973-shot3_0/img77.jpg,943,15,0,2022-06-17_11h33.56.685,annotation,2021.2.3,Win32,20.00080003,,
,,,,,,,,,,,,,,,,,0.531648827,-0.162933044,1,0,0,6.938,image_9,0,56,56,26,1,1827,A man is posing for a picture in a park.,M,0,5,MSR-VTT-videoTestVideo_video7174-shot1_0,Images/MSR-VTT-videoTestVideo_video7174-shot1_0/img0.jpg,Images/MSR-VTT-videoTestVideo_video7174-shot1_0/img18.jpg,Images/MSR-VTT-videoTestVideo_video7174-shot1_0/img24.jpg,Images/MSR-VTT-videoTestVideo_video7174-shot1_0/img27.jpg,Images/MSR-VTT-videoTestVideo_video7174-shot1_0/img29.jpg,Images/MSR-VTT-videoTestVideo_video7174-shot1_0/img32.jpg,Images/MSR-VTT-videoTestVideo_video7174-shot1_0/img38.jpg,Images/MSR-VTT-videoTestVideo_video7174-shot1_0/img46.jpg,Images/MSR-VTT-videoTestVideo_video7174-shot1_0/img58.jpg,Images/MSR-VTT-videoTestVideo_video7174-shot1_0/img70.jpg,221,15,0,2022-06-17_11h33.56.685,annotation,2021.2.3,Win32,20.00080003,,
,,,,,,,,,,,,,,,,,0.465225263,-0.160328206,1,0,0,23.666,image_9,0,57,57,46,1,504,The person in the front has just blocked most of the person's face who is on the left.  You can only see that person's sideburns. ,H,0,3,MSR-VTT-videoTestVideo_video8318-shot0_1,Images/MSR-VTT-videoTestVideo_video8318-shot0_1/img24.jpg,Images/MSR-VTT-videoTestVideo_video8318-shot0_1/img26.jpg,Images/MSR-VTT-videoTestVideo_video8318-shot0_1/img28.jpg,Images/MSR-VTT-videoTestVideo_video8318-shot0_1/img31.jpg,Images/MSR-VTT-videoTestVideo_video8318-shot0_1/img36.jpg,Images/MSR-VTT-videoTestVideo_video8318-shot0_1/img39.jpg,Images/MSR-VTT-videoTestVideo_video8318-shot0_1/img43.jpg,Images/MSR-VTT-videoTestVideo_video8318-shot0_1/img50.jpg,Images/MSR-VTT-videoTestVideo_video8318-shot0_1/img53.jpg,Images/MSR-VTT-videoTestVideo_video8318-shot0_1/img57.jpg,1323,15,0,2022-06-17_11h33.56.685,annotation,2021.2.3,Win32,20.00080003,,
,,,,,,,,,,,,,,,,,-0.002344432,0.132716881,1,0,0,12.11,image_2,0,58,58,6,1,1621,a close up of a person holding a hot dog.,M,0,1,MSR-VTT-videoTestVideo_video7321-shot1_4,Images/MSR-VTT-videoTestVideo_video7321-shot1_4/img348.jpg,Images/MSR-VTT-videoTestVideo_video7321-shot1_4/img383.jpg,Images/MSR-VTT-videoTestVideo_video7321-shot1_4/img387.jpg,Images/MSR-VTT-videoTestVideo_video7321-shot1_4/img405.jpg,Images/MSR-VTT-videoTestVideo_video7321-shot1_4/img409.jpg,Images/MSR-VTT-videoTestVideo_video7321-shot1_4/img418.jpg,Images/MSR-VTT-videoTestVideo_video7321-shot1_4/img426.jpg,Images/MSR-VTT-videoTestVideo_video7321-shot1_4/img446.jpg,Images/MSR-VTT-videoTestVideo_video7321-shot1_4/img451.jpg,Images/MSR-VTT-videoTestVideo_video7321-shot1_4/img458.jpg,175,15,0,2022-06-17_11h33.56.685,annotation,2021.2.3,Win32,20.00080003,,
,,,,,,,,,,,,,,,,,0.422245321,0.235608251,1,0,0,22.224,image_4,0,59,59,41,1,1513,A truck driving down a highway with cars on the side of the road.,M,0,1,MSR-VTT-videoTestVideo_video7662-shot2_0,Images/MSR-VTT-videoTestVideo_video7662-shot2_0/img0.jpg,Images/MSR-VTT-videoTestVideo_video7662-shot2_0/img9.jpg,Images/MSR-VTT-videoTestVideo_video7662-shot2_0/img15.jpg,Images/MSR-VTT-videoTestVideo_video7662-shot2_0/img49.jpg,Images/MSR-VTT-videoTestVideo_video7662-shot2_0/img75.jpg,Images/MSR-VTT-videoTestVideo_video7662-shot2_0/img85.jpg,Images/MSR-VTT-videoTestVideo_video7662-shot2_0/img105.jpg,Images/MSR-VTT-videoTestVideo_video7662-shot2_0/img117.jpg,Images/MSR-VTT-videoTestVideo_video7662-shot2_0/img121.jpg,Images/MSR-VTT-videoTestVideo_video7662-shot2_0/img130.jpg,1255,15,0,2022-06-17_11h33.56.685,annotation,2021.2.3,Win32,20.00080003,,
,,,,,,,,,,,,,,,,,-0.247199815,-0.156420863,1,0,0,14.734,image_6,0,60,60,39,1,1918,A man sitting on top of a bike in a room.,M,0,8,MSR-VTT-videoTestVideo_video8717-shot0_0,Images/MSR-VTT-videoTestVideo_video8717-shot0_0/img0.jpg,Images/MSR-VTT-videoTestVideo_video8717-shot0_0/img1.jpg,Images/MSR-VTT-videoTestVideo_video8717-shot0_0/img3.jpg,Images/MSR-VTT-videoTestVideo_video8717-shot0_0/img4.jpg,Images/MSR-VTT-videoTestVideo_video8717-shot0_0/img5.jpg,Images/MSR-VTT-videoTestVideo_video8717-shot0_0/img6.jpg,Images/MSR-VTT-videoTestVideo_video8717-shot0_0/img8.jpg,Images/MSR-VTT-videoTestVideo_video8717-shot0_0/img9.jpg,Images/MSR-VTT-videoTestVideo_video8717-shot0_0/img12.jpg,Images/MSR-VTT-videoTestVideo_video8717-shot0_0/img17.jpg,1559,15,0,2022-06-17_11h33.56.685,annotation,2021.2.3,Win32,20.00080003,,
,,,,,,,,,,,,,,,,,0.241208489,-0.114743339,1,0,0,5.812,image_8,0,61,61,35,1,298,The guy's eyes are open and looking forward. ,H,0,8,video-storytelling-videocamping_EytINruY3-U-shot8_0,Images/video-storytelling-videocamping_EytINruY3-U-shot8_0/img0.jpg,Images/video-storytelling-videocamping_EytINruY3-U-shot8_0/img3.jpg,Images/video-storytelling-videocamping_EytINruY3-U-shot8_0/img8.jpg,Images/video-storytelling-videocamping_EytINruY3-U-shot8_0/img11.jpg,Images/video-storytelling-videocamping_EytINruY3-U-shot8_0/img17.jpg,Images/video-storytelling-videocamping_EytINruY3-U-shot8_0/img27.jpg,Images/video-storytelling-videocamping_EytINruY3-U-shot8_0/img36.jpg,Images/video-storytelling-videocamping_EytINruY3-U-shot8_0/img40.jpg,Images/video-storytelling-videocamping_EytINruY3-U-shot8_0/img47.jpg,Images/video-storytelling-videocamping_EytINruY3-U-shot8_0/img68.jpg,610,15,0,2022-06-17_11h33.56.685,annotation,2021.2.3,Win32,20.00080003,,
,,,,,,,,,,,,,,,,,-0.004949357,0.19002345,1,0,0,3.287,image_2,0,62,62,58,1,0,Pair of black gloves,H,,2,open-images-510_3a241cb30d6e5319,Checks/check1/open-images-225_1442c0d0ef23d58bimg3.jpg,Checks/check1/open-images-2759_3a42708fe77398b7img8.jpg,Checks/check1/open-images-510_3a241cb30d6e5319img2.jpg,Checks/check1/open-images-2209_02c98146fb93ff17img1.jpg,Checks/check1/open-images-1553_0f128317e56a9d2fimg9.jpg,Checks/check1/open-images-2666_044d7c6d11e6b493img8.jpg,Checks/check1/open-images-2880_159294646083f545img4.jpg,Checks/check1/open-images-609_2dc0baa993a2bd25img5.jpg,Checks/check1/open-images-1854_2b15616b4f1080e7img2.jpg,Checks/check1/open-images-1435_1b0ce31951048765img8.jpg,,,1,2022-06-17_11h33.56.685,annotation,2021.2.3,Win32,20.00080003,,
,,,,,,,,,,,,,,,,,,,,,,,,,,,,,,,,,,,,,,,,,,,,,,,,2022-06-17_11h33.56.685,annotation,2021.2.3,Win32,20.00080003,space,13.64
